"Compatibility","EXPA","EXPB","Shape","acc","accuracy","average_response_time","avg_rt","background","bidi","canvas_backend","clock_backend","color1","color2","color3","color4","color_backend","compensation","coordinates","correct","correct_Target_response","correct_response","count_Block_Break","count_Block_EXPERIMENT_A","count_Block_EXPERIMENT_B","count_Block_Parctice_B","count_Block_Practice_A","count_Block_reset_EXPERIMENT_A","count_Block_reset_EXPERIMENT_B","count_Block_reset_Practice_A","count_Block_reset_Practice_B","count_Break","count_Decide_Color","count_EXPERIMENT_A","count_EXPERIMENT_B","count_EXP_A","count_EXP_B","count_Initial","count_Intertrial","count_Practice_A","count_Practice_B","count_Prepare","count_Prepare_circle_compatible","count_Prepare_circle_incompatible","count_Prepare_rect_compatible","count_Prepare_rect_incompatible","count_Procedure_Ins01","count_Procedure_Ins02","count_Procedure_Ins03","count_Ready","count_Response_Ins","count_Select_Experiment","count_Target","count_Target_circle_compatible","count_Target_circle_incompatible","count_Target_rect_compatible","count_Target_rect_incompatible","count_Target_response","count_Target_response_BadResponse","count_Target_response_Correct","count_Target_response_Wrong","count_Target_response_logger","count_Title","count_Trial","count_Trial_EXPERIMENT_A","count_Trial_EXPERIMENT_B","count_Trial_Practice_A","count_Trial_Practice_B","count_experiment","datetime","description","font_bold","font_family","font_italic","font_size","foreground","form_response","height","keyboard_backend","logfile","mouse_backend","opensesame_codename","opensesame_version","practice","repeat_cycle","response","response_Block_Break","response_Break","response_Procedure_Ins01","response_Procedure_Ins02","response_Procedure_Ins03","response_Ready","response_Response_Ins","response_Target_response","response_Title","response_time","response_time_Block_Break","response_time_Break","response_time_Procedure_Ins01","response_time_Procedure_Ins02","response_time_Procedure_Ins03","response_time_Ready","response_time_Response_Ins","response_time_Target_response","response_time_Title","sampler_backend","soa","start","subject_nr","subject_parity","time_Block_Break","time_Block_EXPERIMENT_A","time_Block_EXPERIMENT_B","time_Block_Parctice_B","time_Block_Practice_A","time_Block_reset_EXPERIMENT_A","time_Block_reset_EXPERIMENT_B","time_Block_reset_Practice_A","time_Block_reset_Practice_B","time_Break","time_Decide_Color","time_EXPERIMENT_A","time_EXPERIMENT_B","time_EXP_A","time_EXP_B","time_Initial","time_Intertrial","time_Practice_A","time_Practice_B","time_Prepare","time_Prepare_circle_compatible","time_Prepare_circle_incompatible","time_Prepare_rect_compatible","time_Prepare_rect_incompatible","time_Procedure_Ins01","time_Procedure_Ins02","time_Procedure_Ins03","time_Ready","time_Response_Ins","time_Select_Experiment","time_Target","time_Target_circle_compatible","time_Target_circle_incompatible","time_Target_rect_compatible","time_Target_rect_incompatible","time_Target_response","time_Target_response_BadResponse","time_Target_response_Correct","time_Target_response_Wrong","time_Target_response_logger","time_Title","time_Trial","time_Trial_EXPERIMENT_A","time_Trial_EXPERIMENT_B","time_Trial_Practice_A","time_Trial_Practice_B","time_experiment","title","total_correct","total_response_time","total_responses","uniform_coordinates","width"
"n","yes","no","rect","0","0","2001","2001","black","no","xpyriment","legacy","yellow","blue","green","red","legacy","0","uniform","0","0","/","1","NA","NA","NA","0","NA","NA","0","NA","NA","0","0","0","0","0","0","0","0","0","0","0","0","0","0","0","0","0","0","0","0","0","0","0","0","0","0","0","0","0","0","0","0","NA","NA","0","NA","0","12/30/15 09:49:53","Default description","no","chinese-japanese-korean","no","18","white","開始實驗A","768","legacy","F:/TCU/Lecture/Experimental_Psychology/2015Fall/Compatibility/3_data_collection/RAW/A-0.csv","xpyriment","Interactive Ising","3.0.4","yes","0","None","NA","NA","space","space","space","space","space","None","space","2001","NA","NA","588","788","532","320723","908","2001","1161","legacy","500","experiment","1","odd","NA","NA","NA","NA","331703","NA","NA","NA","NA","NA","333025","NA","NA","331699","NA","334998","333462","331699","NA","335998","NA","NA","NA","336001","9056","9648","10440","10976","8144","4043","336501","NA","NA","NA","336504","336504","338612","NA","338508","338712","6980","333025","NA","NA","331703","NA","4042","Hommel2002EXP01","0","2001","1","yes","1024"
"n","yes","no","circle","50","50","1427","1427","black","no","xpyriment","legacy","yellow","blue","green","red","legacy","0","uniform","1","1","z","1","NA","NA","NA","0","NA","NA","0","NA","NA","1","0","0","0","0","1","1","0","0","1","1","1","1","1","0","0","0","0","0","0","1","1","1","1","1","1","1","1","1","1","0","1","NA","NA","0","NA","0","12/30/15 09:49:53","Default description","no","chinese-japanese-korean","no","18","white","開始實驗A","768","legacy","F:/TCU/Lecture/Experimental_Psychology/2015Fall/Compatibility/3_data_collection/RAW/A-0.csv","xpyriment","Interactive Ising","3.0.4","yes","0","z","NA","NA","space","space","space","space","space","z","space","854","NA","NA","588","788","532","320723","908","854","1161","legacy","1500","experiment","1","odd","NA","NA","NA","NA","331703","NA","NA","NA","NA","NA","340169","NA","NA","331699","NA","342114","340578","331699","NA","343114","NA","343117","NA","336001","9056","9648","10440","10976","8144","4043","344617","NA","344620","NA","336504","344621","338612","345480","338508","345580","6980","340169","NA","NA","331703","NA","4042","Hommel2002EXP01","1","2855","2","yes","1024"
"n","yes","no","rect","66.6666666667","66.6666666667","1169","1169","black","no","xpyriment","legacy","blue","yellow","green","red","legacy","0","uniform","1","1","/","1","NA","NA","NA","0","NA","NA","0","NA","NA","2","0","0","0","0","2","2","0","0","2","2","2","2","2","0","0","0","0","0","0","2","2","2","2","2","2","2","2","2","2","0","2","NA","NA","0","NA","0","12/30/15 09:49:53","Default description","no","chinese-japanese-korean","no","18","white","開始實驗A","768","legacy","F:/TCU/Lecture/Experimental_Psychology/2015Fall/Compatibility/3_data_collection/RAW/A-0.csv","xpyriment","Interactive Ising","3.0.4","yes","0","/","NA","NA","space","space","space","space","space","/","space","652","NA","NA","588","788","532","320723","908","652","1161","legacy","1500","experiment","1","odd","NA","NA","NA","NA","331703","NA","NA","NA","NA","NA","346997","NA","NA","331699","NA","348963","347460","331699","NA","349963","NA","343117","NA","349966","9056","9648","10440","10976","8144","4043","351466","NA","344620","NA","351469","351470","338612","352127","338508","352227","6980","346997","NA","NA","331703","NA","4042","Hommel2002EXP01","2","3507","3","yes","1024"
"y","yes","no","rect","50","50","1066","1066","black","no","xpyriment","legacy","green","red","yellow","blue","legacy","0","uniform","0","0","/","1","NA","NA","NA","0","NA","NA","0","NA","NA","3","0","0","0","0","3","3","0","0","3","3","3","3","3","0","0","0","0","0","0","3","3","3","3","3","3","3","3","3","3","0","3","NA","NA","0","NA","0","12/30/15 09:49:53","Default description","no","chinese-japanese-korean","no","18","white","開始實驗A","768","legacy","F:/TCU/Lecture/Experimental_Psychology/2015Fall/Compatibility/3_data_collection/RAW/A-0.csv","xpyriment","Interactive Ising","3.0.4","yes","0","z","NA","NA","space","space","space","space","space","z","space","758","NA","NA","588","788","532","320723","908","758","1161","legacy","1000","experiment","1","odd","NA","NA","NA","NA","331703","NA","NA","NA","NA","NA","353646","NA","NA","331699","NA","355478","353936","331699","NA","356478","NA","343117","356481","349966","9056","9648","10440","10976","8144","4043","357481","NA","344620","357484","351469","357484","338612","352127","358246","358346","6980","353646","NA","NA","331703","NA","4042","Hommel2002EXP01","2","4265","4","yes","1024"
"n","yes","no","rect","60","60","985","985","black","no","xpyriment","legacy","blue","yellow","green","red","legacy","0","uniform","1","1","/","1","NA","NA","NA","0","NA","NA","0","NA","NA","4","0","0","0","0","4","4","0","0","4","4","4","4","4","0","0","0","0","0","0","4","4","4","4","4","4","4","4","4","4","0","4","NA","NA","0","NA","0","12/30/15 09:49:53","Default description","no","chinese-japanese-korean","no","18","white","開始實驗A","768","legacy","F:/TCU/Lecture/Experimental_Psychology/2015Fall/Compatibility/3_data_collection/RAW/A-0.csv","xpyriment","Interactive Ising","3.0.4","yes","0","/","NA","NA","space","space","space","space","space","/","space","664","NA","NA","588","788","532","320723","908","664","1161","legacy","1500","experiment","1","odd","NA","NA","NA","NA","331703","NA","NA","NA","NA","NA","359688","NA","NA","331699","NA","361545","360007","331699","NA","362545","NA","343117","356481","362548","9056","9648","10440","10976","8144","4043","364048","NA","344620","357484","364051","364051","338612","364718","358246","364818","6980","359688","NA","NA","331703","NA","4042","Hommel2002EXP01","3","4929","5","yes","1024"
"n","yes","no","rect","66.6666666667","66.6666666667","1099","1099","black","no","xpyriment","legacy","red","blue","green","yellow","legacy","0","uniform","1","1","/","1","NA","NA","NA","0","NA","NA","0","NA","NA","5","0","0","0","0","5","5","0","0","5","5","5","5","5","0","0","0","0","0","0","5","5","5","5","5","5","5","5","5","5","0","5","NA","NA","0","NA","0","12/30/15 09:49:53","Default description","no","chinese-japanese-korean","no","18","white","開始實驗A","768","legacy","F:/TCU/Lecture/Experimental_Psychology/2015Fall/Compatibility/3_data_collection/RAW/A-0.csv","xpyriment","Interactive Ising","3.0.4","yes","0","/","NA","NA","space","space","space","space","space","/","space","1666","NA","NA","588","788","532","320723","908","1666","1161","legacy","0","experiment","1","odd","NA","NA","NA","NA","331703","NA","NA","NA","NA","NA","366160","NA","NA","331699","NA","368088","366553","331699","NA","369088","NA","343117","356481","369091","9056","9648","10440","10976","8144","4043","369091","NA","344620","357484","369096","369096","338612","370766","358246","370866","6980","366160","NA","NA","331703","NA","4042","Hommel2002EXP01","4","6595","6","yes","1024"
"y","yes","no","rect","57.1428571429","57.1428571429","1032","1032","black","no","xpyriment","legacy","red","green","yellow","blue","legacy","0","uniform","0","0","/","1","NA","NA","NA","0","NA","NA","0","NA","NA","6","0","0","0","0","6","6","0","0","6","6","6","6","6","0","0","0","0","0","0","6","6","6","6","6","6","6","6","6","6","0","6","NA","NA","0","NA","0","12/30/15 09:49:53","Default description","no","chinese-japanese-korean","no","18","white","開始實驗A","768","legacy","F:/TCU/Lecture/Experimental_Psychology/2015Fall/Compatibility/3_data_collection/RAW/A-0.csv","xpyriment","Interactive Ising","3.0.4","yes","0","z","NA","NA","space","space","space","space","space","z","space","635","NA","NA","588","788","532","320723","908","635","1161","legacy","1500","experiment","1","odd","NA","NA","NA","NA","331703","NA","NA","NA","NA","NA","372240","NA","NA","331699","NA","374108","372561","331699","NA","375108","NA","343117","375112","369091","9056","9648","10440","10976","8144","4043","376612","NA","344620","376615","369096","376615","338612","370766","377253","377354","6980","372240","NA","NA","331703","NA","4042","Hommel2002EXP01","4","7230","7","yes","1024"
"y","yes","no","circle","62.5","62.5","1031","1031","black","no","xpyriment","legacy","blue","red","green","yellow","legacy","0","uniform","1","1","z","1","NA","NA","NA","0","NA","NA","0","NA","NA","7","0","0","0","0","7","7","0","0","7","7","7","7","7","0","0","0","0","0","0","7","7","7","7","7","7","7","7","7","7","0","7","NA","NA","0","NA","0","12/30/15 09:49:53","Default description","no","chinese-japanese-korean","no","18","white","開始實驗A","768","legacy","F:/TCU/Lecture/Experimental_Psychology/2015Fall/Compatibility/3_data_collection/RAW/A-0.csv","xpyriment","Interactive Ising","3.0.4","yes","0","z","NA","NA","space","space","space","space","space","z","space","1023","NA","NA","588","788","532","320723","908","1023","1161","legacy","1500","experiment","1","odd","NA","NA","NA","NA","331703","NA","NA","NA","NA","NA","379036","NA","NA","331699","NA","380856","379310","331699","NA","381856","381859","343117","375112","369091","9056","9648","10440","10976","8144","4043","383359","383363","344620","376615","369096","383363","338612","384390","377253","384490","6980","379036","NA","NA","331703","NA","4042","Hommel2002EXP01","5","8253","8","yes","1024"
"y","yes","no","rect","55.5555555556","55.5555555556","1022","1022","black","no","xpyriment","legacy","blue","yellow","green","red","legacy","0","uniform","0","0","/","1","NA","NA","NA","0","NA","NA","0","NA","NA","8","0","0","0","0","8","8","0","0","8","8","8","8","8","0","0","0","0","0","0","8","8","8","8","8","8","8","8","8","8","0","8","NA","NA","0","NA","0","12/30/15 09:49:53","Default description","no","chinese-japanese-korean","no","18","white","開始實驗A","768","legacy","F:/TCU/Lecture/Experimental_Psychology/2015Fall/Compatibility/3_data_collection/RAW/A-0.csv","xpyriment","Interactive Ising","3.0.4","yes","0","z","NA","NA","space","space","space","space","space","z","space","948","NA","NA","588","788","532","320723","908","948","1161","legacy","500","experiment","1","odd","NA","NA","NA","NA","331703","NA","NA","NA","NA","NA","385855","NA","NA","331699","NA","387676","386144","331699","NA","388676","381859","343117","388679","369091","9056","9648","10440","10976","8144","4043","389179","383363","344620","389182","369096","389182","338612","384390","390134","390234","6980","385855","NA","NA","331703","NA","4042","Hommel2002EXP01","5","9201","9","yes","1024"
"n","yes","no","rect","60","60","1007","1007","black","no","xpyriment","legacy","red","green","blue","yellow","legacy","0","uniform","1","1","/","1","NA","NA","NA","0","NA","NA","0","NA","NA","9","0","0","0","0","9","9","0","0","9","9","9","9","9","0","0","0","0","0","0","9","9","9","9","9","9","9","9","9","9","0","9","NA","NA","0","NA","0","12/30/15 09:49:53","Default description","no","chinese-japanese-korean","no","18","white","開始實驗A","768","legacy","F:/TCU/Lecture/Experimental_Psychology/2015Fall/Compatibility/3_data_collection/RAW/A-0.csv","xpyriment","Interactive Ising","3.0.4","yes","0","/","NA","NA","space","space","space","space","space","/","space","874","NA","NA","588","788","532","320723","908","874","1161","legacy","0","experiment","1","odd","NA","NA","NA","NA","331703","NA","NA","NA","NA","NA","391637","NA","NA","331699","NA","393618","392115","331699","NA","394618","381859","343117","388679","394621","9056","9648","10440","10976","8144","4043","394621","383363","344620","389182","394624","394624","338612","395501","390134","395601","6980","391637","NA","NA","331703","NA","4042","Hommel2002EXP01","6","10075","10","yes","1024"
"n","yes","no","rect","63.6363636364","63.6363636364","977","977","black","no","xpyriment","legacy","green","yellow","blue","red","legacy","0","uniform","1","1","/","1","NA","NA","NA","0","NA","NA","0","NA","NA","10","0","0","0","0","10","10","0","0","10","10","10","10","10","0","0","0","0","0","0","10","10","10","10","10","10","10","10","10","10","0","10","NA","NA","0","NA","0","12/30/15 09:49:53","Default description","no","chinese-japanese-korean","no","18","white","開始實驗A","768","legacy","F:/TCU/Lecture/Experimental_Psychology/2015Fall/Compatibility/3_data_collection/RAW/A-0.csv","xpyriment","Interactive Ising","3.0.4","yes","0","/","NA","NA","space","space","space","space","space","/","space","674","NA","NA","588","788","532","320723","908","674","1161","legacy","1000","experiment","1","odd","NA","NA","NA","NA","331703","NA","NA","NA","NA","NA","397283","NA","NA","331699","NA","399050","397515","331699","NA","400050","381859","343117","388679","400053","9056","9648","10440","10976","8144","4043","401053","383363","344620","389182","401056","401056","338612","401734","390134","401834","6980","397283","NA","NA","331703","NA","4042","Hommel2002EXP01","7","10749","11","yes","1024"
"n","yes","no","circle","66.6666666667","66.6666666667","984","984","black","no","xpyriment","legacy","yellow","blue","green","red","legacy","0","uniform","1","1","z","1","NA","NA","NA","0","NA","NA","0","NA","NA","11","0","0","0","0","11","11","0","0","11","11","11","11","11","0","0","0","0","0","0","11","11","11","11","11","11","11","11","11","11","0","11","NA","NA","0","NA","0","12/30/15 09:49:53","Default description","no","chinese-japanese-korean","no","18","white","開始實驗A","768","legacy","F:/TCU/Lecture/Experimental_Psychology/2015Fall/Compatibility/3_data_collection/RAW/A-0.csv","xpyriment","Interactive Ising","3.0.4","yes","0","z","NA","NA","space","space","space","space","space","z","space","1069","NA","NA","588","788","532","320723","908","1069","1161","legacy","0","experiment","1","odd","NA","NA","NA","NA","331703","NA","NA","NA","NA","NA","403194","NA","NA","331699","NA","405014","403460","331699","NA","406014","381859","406017","388679","400053","9056","9648","10440","10976","8144","4043","406017","383363","406021","389182","401056","406021","338612","407095","390134","407195","6980","403194","NA","NA","331703","NA","4042","Hommel2002EXP01","8","11818","12","yes","1024"
"y","yes","no","circle","69.2307692308","69.2307692308","970","970","black","no","xpyriment","legacy","red","green","blue","yellow","legacy","0","uniform","1","1","z","1","NA","NA","NA","0","NA","NA","0","NA","NA","12","0","0","0","0","12","12","0","0","12","12","12","12","12","0","0","0","0","0","0","12","12","12","12","12","12","12","12","12","12","0","12","NA","NA","0","NA","0","12/30/15 09:49:53","Default description","no","chinese-japanese-korean","no","18","white","開始實驗A","768","legacy","F:/TCU/Lecture/Experimental_Psychology/2015Fall/Compatibility/3_data_collection/RAW/A-0.csv","xpyriment","Interactive Ising","3.0.4","yes","0","z","NA","NA","space","space","space","space","space","z","space","798","NA","NA","588","788","532","320723","908","798","1161","legacy","0","experiment","1","odd","NA","NA","NA","NA","331703","NA","NA","NA","NA","NA","408570","NA","NA","331699","NA","410405","408859","331699","NA","411405","411408","406017","388679","400053","9056","9648","10440","10976","8144","4043","411408","411412","406021","389182","401056","411412","338612","412213","390134","412313","6980","408570","NA","NA","331703","NA","4042","Hommel2002EXP01","9","12616","13","yes","1024"
"y","yes","no","circle","71.4285714286","71.4285714286","954","954","black","no","xpyriment","legacy","blue","red","yellow","green","legacy","0","uniform","1","1","z","1","NA","NA","NA","0","NA","NA","0","NA","NA","13","0","0","0","0","13","13","0","0","13","13","13","13","13","0","0","0","0","0","0","13","13","13","13","13","13","13","13","13","13","0","13","NA","NA","0","NA","0","12/30/15 09:49:53","Default description","no","chinese-japanese-korean","no","18","white","開始實驗A","768","legacy","F:/TCU/Lecture/Experimental_Psychology/2015Fall/Compatibility/3_data_collection/RAW/A-0.csv","xpyriment","Interactive Ising","3.0.4","yes","0","z","NA","NA","space","space","space","space","space","z","space","749","NA","NA","588","788","532","320723","908","749","1161","legacy","1500","experiment","1","odd","NA","NA","NA","NA","331703","NA","NA","NA","NA","NA","413767","NA","NA","331699","NA","415602","414058","331699","NA","416602","416605","406017","388679","400053","9056","9648","10440","10976","8144","4043","418105","418108","406021","389182","401056","418109","338612","418862","390134","418964","6980","413766","NA","NA","331703","NA","4042","Hommel2002EXP01","10","13365","14","yes","1024"
"n","yes","no","circle","66.6666666667","66.6666666667","958","958","black","no","xpyriment","legacy","yellow","green","red","blue","legacy","0","uniform","0","0","z","1","NA","NA","NA","0","NA","NA","0","NA","NA","14","0","0","0","0","14","14","0","0","14","14","14","14","14","0","0","0","0","0","0","14","14","14","14","14","14","14","14","14","14","0","14","NA","NA","0","NA","0","12/30/15 09:49:53","Default description","no","chinese-japanese-korean","no","18","white","開始實驗A","768","legacy","F:/TCU/Lecture/Experimental_Psychology/2015Fall/Compatibility/3_data_collection/RAW/A-0.csv","xpyriment","Interactive Ising","3.0.4","yes","0","/","NA","NA","space","space","space","space","space","/","space","1011","NA","NA","588","788","532","320723","908","1011","1161","legacy","0","experiment","1","odd","NA","NA","NA","NA","331703","NA","NA","NA","NA","NA","420355","NA","NA","331699","NA","422119","420585","331699","NA","423119","416605","423122","388679","400053","9056","9648","10440","10976","8144","4043","423122","418108","423127","389182","401056","423127","338612","418862","424141","424241","6980","420355","NA","NA","331703","NA","4042","Hommel2002EXP01","10","14376","15","yes","1024"
"n","yes","no","circle","68.75","68.75","946","946","black","no","xpyriment","legacy","yellow","red","blue","green","legacy","0","uniform","1","1","z","1","NA","NA","NA","0","NA","NA","0","NA","NA","15","0","0","0","0","15","15","0","0","15","15","15","15","15","0","0","0","0","0","0","15","15","15","15","15","15","15","15","15","15","0","15","NA","NA","0","NA","0","12/30/15 09:49:53","Default description","no","chinese-japanese-korean","no","18","white","開始實驗A","768","legacy","F:/TCU/Lecture/Experimental_Psychology/2015Fall/Compatibility/3_data_collection/RAW/A-0.csv","xpyriment","Interactive Ising","3.0.4","yes","0","z","NA","NA","space","space","space","space","space","z","space","773","NA","NA","588","788","532","320723","908","773","1161","legacy","500","experiment","1","odd","NA","NA","NA","NA","331703","NA","NA","NA","NA","NA","425666","NA","NA","331699","NA","427610","426106","331699","NA","428610","416605","428613","388679","400053","9056","9648","10440","10976","8144","4043","429113","418108","429116","389182","401056","429116","338612","429894","424141","429994","6980","425666","NA","NA","331703","NA","4042","Hommel2002EXP01","11","15149","16","yes","1024"
"y","yes","no","rect","70.5882352941","70.5882352941","950","950","black","no","xpyriment","legacy","yellow","blue","red","green","legacy","0","uniform","1","1","/","1","NA","NA","NA","0","NA","NA","0","NA","NA","16","0","0","0","0","16","16","0","0","16","16","16","16","16","0","0","0","0","0","0","16","16","16","16","16","16","16","16","16","16","0","16","NA","NA","0","NA","0","12/30/15 09:49:53","Default description","no","chinese-japanese-korean","no","18","white","開始實驗A","768","legacy","F:/TCU/Lecture/Experimental_Psychology/2015Fall/Compatibility/3_data_collection/RAW/A-0.csv","xpyriment","Interactive Ising","3.0.4","yes","0","/","NA","NA","space","space","space","space","space","/","space","1007","NA","NA","588","788","532","320723","908","1007","1161","legacy","0","experiment","1","odd","NA","NA","NA","NA","331703","NA","NA","NA","NA","NA","431549","NA","NA","331699","NA","433275","431738","331699","NA","434275","416605","428613","434279","400053","9056","9648","10440","10976","8144","4043","434279","418108","429116","434283","401056","434283","338612","435295","424141","435395","6980","431549","NA","NA","331703","NA","4042","Hommel2002EXP01","12","16156","17","yes","1024"
"y","yes","no","circle","72.2222222222","72.2222222222","947","947","black","no","xpyriment","legacy","red","blue","green","yellow","legacy","0","uniform","1","1","z","1","NA","NA","NA","0","NA","NA","0","NA","NA","17","0","0","0","0","17","17","0","0","17","17","17","17","17","0","0","0","0","0","0","17","17","17","17","17","17","17","17","17","17","0","17","NA","NA","0","NA","0","12/30/15 09:49:53","Default description","no","chinese-japanese-korean","no","18","white","開始實驗A","768","legacy","F:/TCU/Lecture/Experimental_Psychology/2015Fall/Compatibility/3_data_collection/RAW/A-0.csv","xpyriment","Interactive Ising","3.0.4","yes","0","z","NA","NA","space","space","space","space","space","z","space","899","NA","NA","588","788","532","320723","908","899","1161","legacy","1000","experiment","1","odd","NA","NA","NA","NA","331703","NA","NA","NA","NA","NA","436739","NA","NA","331699","NA","438529","436994","331699","NA","439529","439532","428613","434279","400053","9056","9648","10440","10976","8144","4043","440532","440535","429116","434283","401056","440535","338612","441437","424141","441537","6980","436738","NA","NA","331703","NA","4042","Hommel2002EXP01","13","17055","18","yes","1024"
"y","yes","no","rect","68.4210526316","68.4210526316","949","949","black","no","xpyriment","legacy","green","yellow","blue","red","legacy","0","uniform","0","0","/","1","NA","NA","NA","0","NA","NA","0","NA","NA","18","0","0","0","0","18","18","0","0","18","18","18","18","18","0","0","0","0","0","0","18","18","18","18","18","18","18","18","18","18","0","18","NA","NA","0","NA","0","12/30/15 09:49:53","Default description","no","chinese-japanese-korean","no","18","white","開始實驗A","768","legacy","F:/TCU/Lecture/Experimental_Psychology/2015Fall/Compatibility/3_data_collection/RAW/A-0.csv","xpyriment","Interactive Ising","3.0.4","yes","0","z","NA","NA","space","space","space","space","space","z","space","985","NA","NA","588","788","532","320723","908","985","1161","legacy","0","experiment","1","odd","NA","NA","NA","NA","331703","NA","NA","NA","NA","NA","442882","NA","NA","331699","NA","444705","443166","331699","NA","445705","439532","428613","445709","400053","9056","9648","10440","10976","8144","4043","445709","440535","429116","445712","401056","445712","338612","441437","446701","446801","6980","442882","NA","NA","331703","NA","4042","Hommel2002EXP01","13","18040","19","yes","1024"
"y","yes","no","rect","65","65","939","939","black","no","xpyriment","legacy","red","yellow","green","blue","legacy","0","uniform","0","0","/","1","NA","NA","NA","0","NA","NA","0","NA","NA","19","0","0","0","0","19","19","0","0","19","19","19","19","19","0","0","0","0","0","0","19","19","19","19","19","19","19","19","19","19","0","19","NA","NA","0","NA","0","12/30/15 09:49:53","Default description","no","chinese-japanese-korean","no","18","white","開始實驗A","768","legacy","F:/TCU/Lecture/Experimental_Psychology/2015Fall/Compatibility/3_data_collection/RAW/A-0.csv","xpyriment","Interactive Ising","3.0.4","yes","0","z","NA","NA","space","space","space","space","space","z","space","745","NA","NA","588","788","532","320723","908","745","1161","legacy","1500","experiment","1","odd","NA","NA","NA","NA","331703","NA","NA","NA","NA","NA","448182","NA","NA","331699","NA","450014","448474","331699","NA","451014","439532","428613","451017","400053","9056","9648","10440","10976","8144","4043","452517","440535","429116","452520","401056","452521","338612","441437","453270","453370","6980","448182","NA","NA","331703","NA","4042","Hommel2002EXP01","13","18785","20","yes","1024"
"y","yes","no","circle","66.6666666667","66.6666666667","933","933","black","no","xpyriment","legacy","blue","green","red","yellow","legacy","0","uniform","1","1","z","1","NA","NA","NA","0","NA","NA","0","NA","NA","20","0","0","0","0","20","20","0","0","20","20","20","20","20","0","0","0","0","0","0","20","20","20","20","20","20","20","20","20","20","0","20","NA","NA","0","NA","0","12/30/15 09:49:53","Default description","no","chinese-japanese-korean","no","18","white","開始實驗A","768","legacy","F:/TCU/Lecture/Experimental_Psychology/2015Fall/Compatibility/3_data_collection/RAW/A-0.csv","xpyriment","Interactive Ising","3.0.4","yes","0","z","NA","NA","space","space","space","space","space","z","space","812","NA","NA","588","788","532","320723","908","812","1161","legacy","500","experiment","1","odd","NA","NA","NA","NA","331703","NA","NA","NA","NA","NA","454874","NA","NA","331699","NA","456731","455187","331699","NA","457731","457734","428613","451017","400053","9056","9648","10440","10976","8144","4043","458234","458237","429116","452520","401056","458238","338612","459053","453270","459153","6980","454874","NA","NA","331703","NA","4042","Hommel2002EXP01","14","19597","21","yes","1024"
"n","yes","no","circle","68.1818181818","68.1818181818","932","932","black","no","xpyriment","legacy","yellow","blue","red","green","legacy","0","uniform","1","1","z","1","NA","NA","NA","0","NA","NA","0","NA","NA","21","0","0","0","0","21","21","0","0","21","21","21","21","21","0","0","0","0","0","0","21","21","21","21","21","21","21","21","21","21","0","21","NA","NA","0","NA","0","12/30/15 09:49:53","Default description","no","chinese-japanese-korean","no","18","white","開始實驗A","768","legacy","F:/TCU/Lecture/Experimental_Psychology/2015Fall/Compatibility/3_data_collection/RAW/A-0.csv","xpyriment","Interactive Ising","3.0.4","yes","0","z","NA","NA","space","space","space","space","space","z","space","918","NA","NA","588","788","532","320723","908","918","1161","legacy","1000","experiment","1","odd","NA","NA","NA","NA","331703","NA","NA","NA","NA","NA","460716","NA","NA","331699","NA","462588","461051","331699","NA","463588","457734","463591","451017","400053","9056","9648","10440","10976","8144","4043","464591","458237","464595","452520","401056","464595","338612","465517","453270","465617","6980","460716","NA","NA","331703","NA","4042","Hommel2002EXP01","15","20515","22","yes","1024"
"n","yes","no","rect","69.5652173913","69.5652173913","922","922","black","no","xpyriment","legacy","red","blue","yellow","green","legacy","0","uniform","1","1","/","1","NA","NA","NA","0","NA","NA","0","NA","NA","22","0","0","0","0","22","22","0","0","22","22","22","22","22","0","0","0","0","0","0","22","22","22","22","22","22","22","22","22","22","0","22","NA","NA","0","NA","0","12/30/15 09:49:53","Default description","no","chinese-japanese-korean","no","18","white","開始實驗A","768","legacy","F:/TCU/Lecture/Experimental_Psychology/2015Fall/Compatibility/3_data_collection/RAW/A-0.csv","xpyriment","Interactive Ising","3.0.4","yes","0","/","NA","NA","space","space","space","space","space","/","space","709","NA","NA","588","788","532","320723","908","709","1161","legacy","1000","experiment","1","odd","NA","NA","NA","NA","331703","NA","NA","NA","NA","NA","467014","NA","NA","331699","NA","469006","467503","331699","NA","470006","457734","463591","451017","470010","9056","9648","10440","10976","8144","4043","471010","458237","464595","452520","471013","471013","338612","471726","453270","471827","6980","467014","NA","NA","331703","NA","4042","Hommel2002EXP01","16","21224","23","yes","1024"
"y","yes","no","circle","70.8333333333","70.8333333333","913","913","black","no","xpyriment","legacy","yellow","blue","red","green","legacy","0","uniform","1","1","z","1","NA","NA","NA","0","NA","NA","0","NA","NA","23","0","0","0","0","23","23","0","0","23","23","23","23","23","0","0","0","0","0","0","23","23","23","23","23","23","23","23","23","23","0","23","NA","NA","0","NA","0","12/30/15 09:49:53","Default description","no","chinese-japanese-korean","no","18","white","開始實驗A","768","legacy","F:/TCU/Lecture/Experimental_Psychology/2015Fall/Compatibility/3_data_collection/RAW/A-0.csv","xpyriment","Interactive Ising","3.0.4","yes","0","z","NA","NA","space","space","space","space","space","z","space","702","NA","NA","588","788","532","320723","908","702","1161","legacy","500","experiment","1","odd","NA","NA","NA","NA","331703","NA","NA","NA","NA","NA","473313","NA","NA","331699","NA","475064","473524","331699","NA","476064","476067","463591","451017","470010","9056","9648","10440","10976","8144","4043","476567","476570","464595","452520","471013","476571","338612","477278","453270","477378","6980","473313","NA","NA","331703","NA","4042","Hommel2002EXP01","17","21926","24","yes","1024"
"y","yes","no","circle","72","72","905","905","black","no","xpyriment","legacy","yellow","green","blue","red","legacy","0","uniform","1","1","z","1","NA","NA","NA","0","NA","NA","0","NA","NA","24","0","0","0","0","24","24","0","0","24","24","24","24","24","0","0","0","0","0","0","24","24","24","24","24","24","24","24","24","24","0","24","NA","NA","0","NA","0","12/30/15 09:49:53","Default description","no","chinese-japanese-korean","no","18","white","開始實驗A","768","legacy","F:/TCU/Lecture/Experimental_Psychology/2015Fall/Compatibility/3_data_collection/RAW/A-0.csv","xpyriment","Interactive Ising","3.0.4","yes","0","z","NA","NA","space","space","space","space","space","z","space","705","NA","NA","588","788","532","320723","908","705","1161","legacy","1000","experiment","1","odd","NA","NA","NA","NA","331703","NA","NA","NA","NA","NA","478856","NA","NA","331699","NA","480643","479102","331699","NA","481643","481646","463591","451017","470010","9056","9648","10440","10976","8144","4043","482646","482649","464595","452520","471013","482649","338612","483358","453270","483458","6980","478855","NA","NA","331703","NA","4042","Hommel2002EXP01","18","22631","25","yes","1024"
"y","yes","no","circle","73.0769230769","73.0769230769","903","903","black","no","xpyriment","legacy","blue","red","green","yellow","legacy","0","uniform","1","1","z","1","NA","NA","NA","0","NA","NA","0","NA","NA","25","0","0","0","0","25","25","0","0","25","25","25","25","25","0","0","0","0","0","0","25","25","25","25","25","25","25","25","25","25","0","25","NA","NA","0","NA","0","12/30/15 09:49:53","Default description","no","chinese-japanese-korean","no","18","white","開始實驗A","768","legacy","F:/TCU/Lecture/Experimental_Psychology/2015Fall/Compatibility/3_data_collection/RAW/A-0.csv","xpyriment","Interactive Ising","3.0.4","yes","0","z","NA","NA","space","space","space","space","space","z","space","870","NA","NA","588","788","532","320723","908","870","1161","legacy","0","experiment","1","odd","NA","NA","NA","NA","331703","NA","NA","NA","NA","NA","484854","NA","NA","331699","NA","486677","485138","331699","NA","487677","487680","463591","451017","470010","9056","9648","10440","10976","8144","4043","487680","487684","464595","452520","471013","487684","338612","488557","453270","488657","6980","484854","NA","NA","331703","NA","4042","Hommel2002EXP01","19","23501","26","yes","1024"
"n","yes","no","circle","74.0740740741","74.0740740741","896","896","black","no","xpyriment","legacy","red","blue","yellow","green","legacy","0","uniform","1","1","z","1","NA","NA","NA","0","NA","NA","0","NA","NA","26","0","0","0","0","26","26","0","0","26","26","26","26","26","0","0","0","0","0","0","26","26","26","26","26","26","26","26","26","26","0","26","NA","NA","0","NA","0","12/30/15 09:49:53","Default description","no","chinese-japanese-korean","no","18","white","開始實驗A","768","legacy","F:/TCU/Lecture/Experimental_Psychology/2015Fall/Compatibility/3_data_collection/RAW/A-0.csv","xpyriment","Interactive Ising","3.0.4","yes","0","z","NA","NA","space","space","space","space","space","z","space","708","NA","NA","588","788","532","320723","908","708","1161","legacy","1500","experiment","1","odd","NA","NA","NA","NA","331703","NA","NA","NA","NA","NA","490068","NA","NA","331699","NA","491930","490394","331699","NA","492930","487680","492933","451017","470010","9056","9648","10440","10976","8144","4043","494433","487684","494436","452520","471013","494437","338612","495149","453270","495249","6980","490068","NA","NA","331703","NA","4042","Hommel2002EXP01","20","24209","27","yes","1024"
"y","yes","no","rect","71.4285714286","71.4285714286","895","895","black","no","xpyriment","legacy","green","blue","yellow","red","legacy","0","uniform","0","0","/","1","NA","NA","NA","0","NA","NA","0","NA","NA","27","0","0","0","0","27","27","0","0","27","27","27","27","27","0","0","0","0","0","0","27","27","27","27","27","27","27","27","27","27","0","27","NA","NA","0","NA","0","12/30/15 09:49:53","Default description","no","chinese-japanese-korean","no","18","white","開始實驗A","768","legacy","F:/TCU/Lecture/Experimental_Psychology/2015Fall/Compatibility/3_data_collection/RAW/A-0.csv","xpyriment","Interactive Ising","3.0.4","yes","0","z","NA","NA","space","space","space","space","space","z","space","868","NA","NA","588","788","532","320723","908","868","1161","legacy","500","experiment","1","odd","NA","NA","NA","NA","331703","NA","NA","NA","NA","NA","496605","NA","NA","331699","NA","498459","496914","331699","NA","499459","487680","492933","499462","470010","9056","9648","10440","10976","8144","4043","499962","487684","494436","499966","471013","499966","338612","495149","500838","500938","6980","496605","NA","NA","331703","NA","4042","Hommel2002EXP01","20","25077","28","yes","1024"
"n","yes","no","circle","72.4137931034","72.4137931034","896","896","black","no","xpyriment","legacy","red","green","blue","yellow","legacy","0","uniform","1","1","z","1","NA","NA","NA","0","NA","NA","0","NA","NA","28","0","0","0","0","28","28","0","0","28","28","28","28","28","0","0","0","0","0","0","28","28","28","28","28","28","28","28","28","28","0","28","NA","NA","0","NA","0","12/30/15 09:49:53","Default description","no","chinese-japanese-korean","no","18","white","開始實驗A","768","legacy","F:/TCU/Lecture/Experimental_Psychology/2015Fall/Compatibility/3_data_collection/RAW/A-0.csv","xpyriment","Interactive Ising","3.0.4","yes","0","z","NA","NA","space","space","space","space","space","z","space","908","NA","NA","588","788","532","320723","908","908","1161","legacy","500","experiment","1","odd","NA","NA","NA","NA","331703","NA","NA","NA","NA","NA","502355","NA","NA","331699","NA","504331","502828","331699","NA","505331","487680","505334","499462","470010","9056","9648","10440","10976","8144","4043","505834","487684","505837","499966","471013","505837","338612","506749","500838","506849","6980","502355","NA","NA","331703","NA","4042","Hommel2002EXP01","21","25985","29","yes","1024"
"n","yes","no","rect","73.3333333333","73.3333333333","898","898","black","no","xpyriment","legacy","green","yellow","red","blue","legacy","0","uniform","1","1","/","1","NA","NA","NA","0","NA","NA","0","NA","NA","29","0","0","0","0","29","29","0","0","29","29","29","29","29","0","0","0","0","0","0","29","29","29","29","29","29","29","29","29","29","0","29","NA","NA","0","NA","0","12/30/15 09:49:53","Default description","no","chinese-japanese-korean","no","18","white","開始實驗A","768","legacy","F:/TCU/Lecture/Experimental_Psychology/2015Fall/Compatibility/3_data_collection/RAW/A-0.csv","xpyriment","Interactive Ising","3.0.4","yes","0","/","NA","NA","space","space","space","space","space","/","space","980","NA","NA","588","788","532","320723","908","980","1161","legacy","500","experiment","1","odd","NA","NA","NA","NA","331703","NA","NA","NA","NA","NA","508514","NA","NA","331699","NA","510322","508819","331699","NA","511322","487680","505334","499462","511326","9056","9648","10440","10976","8144","4043","511826","487684","505837","499966","511829","511829","338612","512813","500838","512913","6980","508514","NA","NA","331703","NA","4042","Hommel2002EXP01","22","26965","30","yes","1024"
"y","yes","no","rect","70.9677419355","70.9677419355","904","904","black","no","xpyriment","legacy","yellow","red","blue","green","legacy","0","uniform","0","0","/","1","NA","NA","NA","0","NA","NA","0","NA","NA","30","0","0","0","0","30","30","0","0","30","30","30","30","30","0","0","0","0","0","0","30","30","30","30","30","30","30","30","30","30","0","30","NA","NA","0","NA","0","12/30/15 09:49:53","Default description","no","chinese-japanese-korean","no","18","white","開始實驗A","768","legacy","F:/TCU/Lecture/Experimental_Psychology/2015Fall/Compatibility/3_data_collection/RAW/A-0.csv","xpyriment","Interactive Ising","3.0.4","yes","0","z","NA","NA","space","space","space","space","space","z","space","1075","NA","NA","588","788","532","320723","908","1075","1161","legacy","1000","experiment","1","odd","NA","NA","NA","NA","331703","NA","NA","NA","NA","NA","514270","NA","NA","331699","NA","515950","514410","331699","NA","516951","487680","505334","516954","511326","9056","9648","10440","10976","8144","4043","517954","487684","505837","517959","511829","517959","338612","512813","519037","519137","6980","514270","NA","NA","331703","NA","4042","Hommel2002EXP01","22","28040","31","yes","1024"
"n","yes","no","circle","71.875","71.875","899","899","black","no","xpyriment","legacy","blue","green","yellow","red","legacy","0","uniform","1","1","z","1","NA","NA","NA","0","NA","NA","0","NA","NA","31","0","0","0","0","31","31","0","0","31","31","31","31","31","0","0","0","0","0","0","31","31","31","31","31","31","31","31","31","31","0","31","NA","NA","0","NA","0","12/30/15 09:49:53","Default description","no","chinese-japanese-korean","no","18","white","開始實驗A","768","legacy","F:/TCU/Lecture/Experimental_Psychology/2015Fall/Compatibility/3_data_collection/RAW/A-0.csv","xpyriment","Interactive Ising","3.0.4","yes","0","z","NA","NA","space","space","space","space","space","z","space","757","NA","NA","588","788","532","320723","908","757","1161","legacy","1000","experiment","1","odd","NA","NA","NA","NA","331703","NA","NA","NA","NA","NA","520501","NA","NA","331699","NA","522317","520780","331699","NA","523317","487680","523320","516954","511326","9056","9648","10440","10976","8144","4043","524320","487684","524323","517959","511829","524324","338612","525085","519037","525185","6980","520501","NA","NA","331703","NA","4042","Hommel2002EXP01","23","28797","32","yes","1024"
"n","yes","no","circle","100","100","932","932","black","no","xpyriment","legacy","yellow","red","blue","green","legacy","0","uniform","1","1","z","1","NA","NA","NA","1","NA","NA","1","NA","0","32","0","0","0","0","32","32","0","0","32","32","32","32","32","0","0","0","0","0","0","32","32","32","32","32","32","32","32","32","32","0","32","NA","NA","1","NA","0","12/30/15 09:49:53","Default description","no","chinese-japanese-korean","no","18","white","開始實驗A","768","legacy","F:/TCU/Lecture/Experimental_Psychology/2015Fall/Compatibility/3_data_collection/RAW/A-0.csv","xpyriment","Interactive Ising","3.0.4","yes","0","z","NA","space","space","space","space","space","space","z","space","932","NA","12120","588","788","532","320723","908","932","1161","legacy","1000","experiment","1","odd","NA","NA","NA","NA","537532","NA","NA","NA","NA","525410","538836","NA","NA","331699","NA","540614","539070","331699","NA","541614","487680","541617","516954","511326","9056","9648","10440","10976","8144","4043","542617","487684","542620","517959","511829","542621","338612","543557","519037","543657","6980","538835","NA","NA","537532","NA","4042","Hommel2002EXP01","1","932","1","yes","1024"
"y","yes","no","circle","100","100","895","895","black","no","xpyriment","legacy","green","blue","yellow","red","legacy","0","uniform","1","1","z","1","NA","NA","NA","1","NA","NA","1","NA","0","33","0","0","0","0","33","33","0","0","33","33","33","33","33","0","0","0","0","0","0","33","33","33","33","33","33","33","33","33","33","0","33","NA","NA","1","NA","0","12/30/15 09:49:53","Default description","no","chinese-japanese-korean","no","18","white","開始實驗A","768","legacy","F:/TCU/Lecture/Experimental_Psychology/2015Fall/Compatibility/3_data_collection/RAW/A-0.csv","xpyriment","Interactive Ising","3.0.4","yes","0","z","NA","space","space","space","space","space","space","z","space","858","NA","12120","588","788","532","320723","908","858","1161","legacy","500","experiment","1","odd","NA","NA","NA","NA","537532","NA","NA","NA","NA","525410","544999","NA","NA","331699","NA","546829","545326","331699","NA","547829","547832","541617","516954","511326","9056","9648","10440","10976","8144","4043","548332","548335","542620","517959","511829","548335","338612","549196","519037","549297","6980","544999","NA","NA","537532","NA","4042","Hommel2002EXP01","2","1790","2","yes","1024"
"y","yes","no","rect","100","100","981","981","black","no","xpyriment","legacy","red","yellow","green","blue","legacy","0","uniform","1","1","/","1","NA","NA","NA","1","NA","NA","1","NA","0","34","0","0","0","0","34","34","0","0","34","34","34","34","34","0","0","0","0","0","0","34","34","34","34","34","34","34","34","34","34","0","34","NA","NA","1","NA","0","12/30/15 09:49:53","Default description","no","chinese-japanese-korean","no","18","white","開始實驗A","768","legacy","F:/TCU/Lecture/Experimental_Psychology/2015Fall/Compatibility/3_data_collection/RAW/A-0.csv","xpyriment","Interactive Ising","3.0.4","yes","0","/","NA","space","space","space","space","space","space","/","space","1153","NA","12120","588","788","532","320723","908","1153","1161","legacy","0","experiment","1","odd","NA","NA","NA","NA","537532","NA","NA","NA","NA","525410","550650","NA","NA","331699","NA","552336","550802","331699","NA","553336","547832","541617","553339","511326","9056","9648","10440","10976","8144","4043","553339","548335","542620","553344","511829","553344","338612","554501","519037","554601","6980","550649","NA","NA","537532","NA","4042","Hommel2002EXP01","3","2943","3","yes","1024"
"n","yes","no","circle","75","75","963","963","black","no","xpyriment","legacy","red","green","blue","yellow","legacy","0","uniform","0","0","z","1","NA","NA","NA","1","NA","NA","1","NA","0","35","0","0","0","0","35","35","0","0","35","35","35","35","35","0","0","0","0","0","0","35","35","35","35","35","35","35","35","35","35","0","35","NA","NA","1","NA","0","12/30/15 09:49:53","Default description","no","chinese-japanese-korean","no","18","white","開始實驗A","768","legacy","F:/TCU/Lecture/Experimental_Psychology/2015Fall/Compatibility/3_data_collection/RAW/A-0.csv","xpyriment","Interactive Ising","3.0.4","yes","0","/","NA","space","space","space","space","space","space","/","space","909","NA","12120","588","788","532","320723","908","909","1161","legacy","500","experiment","1","odd","NA","NA","NA","NA","537532","NA","NA","NA","NA","525410","555974","NA","NA","331699","NA","557767","556222","331699","NA","558767","547832","558770","553339","511326","9056","9648","10440","10976","8144","4043","559271","548335","559275","553344","511829","559276","338612","554501","560189","560289","6980","555973","NA","NA","537532","NA","4042","Hommel2002EXP01","3","3852","4","yes","1024"
"n","yes","no","rect","80","80","877","877","black","no","xpyriment","legacy","red","yellow","green","blue","legacy","0","uniform","1","1","/","1","NA","NA","NA","1","NA","NA","1","NA","0","36","0","0","0","0","36","36","0","0","36","36","36","36","36","0","0","0","0","0","0","36","36","36","36","36","36","36","36","36","36","0","36","NA","NA","1","NA","0","12/30/15 09:49:53","Default description","no","chinese-japanese-korean","no","18","white","開始實驗A","768","legacy","F:/TCU/Lecture/Experimental_Psychology/2015Fall/Compatibility/3_data_collection/RAW/A-0.csv","xpyriment","Interactive Ising","3.0.4","yes","0","/","NA","space","space","space","space","space","space","/","space","537","NA","12120","588","788","532","320723","908","537","1161","legacy","1000","experiment","1","odd","NA","NA","NA","NA","537532","NA","NA","NA","NA","525410","561630","NA","NA","331699","NA","563393","561860","331699","NA","564393","547832","558770","553339","564396","9056","9648","10440","10976","8144","4043","565396","548335","559275","553344","565399","565400","338612","565940","560189","566041","6980","561630","NA","NA","537532","NA","4042","Hommel2002EXP01","4","4389","5","yes","1024"
"n","yes","no","circle","83.3333333333","83.3333333333","868","868","black","no","xpyriment","legacy","yellow","green","red","blue","legacy","0","uniform","1","1","z","1","NA","NA","NA","1","NA","NA","1","NA","0","37","0","0","0","0","37","37","0","0","37","37","37","37","37","0","0","0","0","0","0","37","37","37","37","37","37","37","37","37","37","0","37","NA","NA","1","NA","0","12/30/15 09:49:53","Default description","no","chinese-japanese-korean","no","18","white","開始實驗A","768","legacy","F:/TCU/Lecture/Experimental_Psychology/2015Fall/Compatibility/3_data_collection/RAW/A-0.csv","xpyriment","Interactive Ising","3.0.4","yes","0","Z","NA","space","space","space","space","space","space","Z","space","823","NA","12120","588","788","532","320723","908","823","1161","legacy","500","experiment","1","odd","NA","NA","NA","NA","537532","NA","NA","NA","NA","525410","567392","NA","NA","331699","NA","569166","567626","331699","NA","570167","547832","570170","553339","564396","9056","9648","10440","10976","8144","4043","570670","548335","570673","553344","565399","570674","338612","571501","560189","571601","6980","567392","NA","NA","537532","NA","4042","Hommel2002EXP01","5","5212","6","yes","1024"
"n","yes","no","circle","85.7142857143","85.7142857143","891","891","black","no","xpyriment","legacy","yellow","green","blue","red","legacy","0","uniform","1","1","z","1","NA","NA","NA","1","NA","NA","1","NA","0","38","0","0","0","0","38","38","0","0","38","38","38","38","38","0","0","0","0","0","0","38","38","38","38","38","38","38","38","38","38","0","38","NA","NA","1","NA","0","12/30/15 09:49:53","Default description","no","chinese-japanese-korean","no","18","white","開始實驗A","768","legacy","F:/TCU/Lecture/Experimental_Psychology/2015Fall/Compatibility/3_data_collection/RAW/A-0.csv","xpyriment","Interactive Ising","3.0.4","yes","0","Z","NA","space","space","space","space","space","space","Z","space","1025","NA","12120","588","788","532","320723","908","1025","1161","legacy","0","experiment","1","odd","NA","NA","NA","NA","537532","NA","NA","NA","NA","525410","572978","NA","NA","331699","NA","574745","573193","331699","NA","575745","547832","575748","553339","564396","9056","9648","10440","10976","8144","4043","575748","548335","575752","553344","565399","575752","338612","576781","560189","576881","6980","572978","NA","NA","537532","NA","4042","Hommel2002EXP01","6","6237","7","yes","1024"
"n","yes","no","rect","87.5","87.5","856","856","black","no","xpyriment","legacy","green","blue","yellow","red","legacy","0","uniform","1","1","/","1","NA","NA","NA","1","NA","NA","1","NA","0","39","0","0","0","0","39","39","0","0","39","39","39","39","39","0","0","0","0","0","0","39","39","39","39","39","39","39","39","39","39","0","39","NA","NA","1","NA","0","12/30/15 09:49:53","Default description","no","chinese-japanese-korean","no","18","white","開始實驗A","768","legacy","F:/TCU/Lecture/Experimental_Psychology/2015Fall/Compatibility/3_data_collection/RAW/A-0.csv","xpyriment","Interactive Ising","3.0.4","yes","0","/","NA","space","space","space","space","space","space","/","space","612","NA","12120","588","788","532","320723","908","612","1161","legacy","500","experiment","1","odd","NA","NA","NA","NA","537532","NA","NA","NA","NA","525410","578221","NA","NA","331699","NA","579997","578448","331699","NA","580997","547832","575748","553339","581000","9056","9648","10440","10976","8144","4043","581500","548335","575752","553344","581637","581637","338612","582252","560189","582352","6980","578220","NA","NA","537532","NA","4042","Hommel2002EXP01","7","6849","8","yes","1024"
"n","yes","no","rect","88.8888888889","88.8888888889","848","848","black","no","xpyriment","legacy","green","blue","red","yellow","legacy","0","uniform","1","1","/","1","NA","NA","NA","1","NA","NA","1","NA","0","40","0","0","0","0","40","40","0","0","40","40","40","40","40","0","0","0","0","0","0","40","40","40","40","40","40","40","40","40","40","0","40","NA","NA","1","NA","0","12/30/15 09:49:53","Default description","no","chinese-japanese-korean","no","18","white","開始實驗A","768","legacy","F:/TCU/Lecture/Experimental_Psychology/2015Fall/Compatibility/3_data_collection/RAW/A-0.csv","xpyriment","Interactive Ising","3.0.4","yes","0","/","NA","space","space","space","space","space","space","/","space","783","NA","12120","588","788","532","320723","908","783","1161","legacy","0","experiment","1","odd","NA","NA","NA","NA","537532","NA","NA","NA","NA","525410","583990","NA","NA","331699","NA","586210","584668","331699","NA","587210","547832","575748","553339","587213","9056","9648","10440","10976","8144","4043","587213","548335","575752","553344","587217","587217","338612","588004","560189","588104","6980","583990","NA","NA","537532","NA","4042","Hommel2002EXP01","8","7632","9","yes","1024"
"y","yes","no","circle","90","90","841","841","black","no","xpyriment","legacy","yellow","green","red","blue","legacy","0","uniform","1","1","z","1","NA","NA","NA","1","NA","NA","1","NA","0","41","0","0","0","0","41","41","0","0","41","41","41","41","41","0","0","0","0","0","0","41","41","41","41","41","41","41","41","41","41","0","41","NA","NA","1","NA","0","12/30/15 09:49:53","Default description","no","chinese-japanese-korean","no","18","white","開始實驗A","768","legacy","F:/TCU/Lecture/Experimental_Psychology/2015Fall/Compatibility/3_data_collection/RAW/A-0.csv","xpyriment","Interactive Ising","3.0.4","yes","0","Z","NA","space","space","space","space","space","space","Z","space","782","NA","12120","588","788","532","320723","908","782","1161","legacy","1000","experiment","1","odd","NA","NA","NA","NA","537532","NA","NA","NA","NA","525410","589436","NA","NA","331699","NA","591219","589674","331699","NA","592219","592222","575748","553339","587213","9056","9648","10440","10976","8144","4043","593222","593226","575752","553344","587217","593227","338612","594013","560189","594113","6980","589436","NA","NA","537532","NA","4042","Hommel2002EXP01","9","8414","10","yes","1024"
"y","yes","no","rect","81.8181818182","81.8181818182","839","839","black","no","xpyriment","legacy","green","red","blue","yellow","legacy","0","uniform","0","0","/","1","NA","NA","NA","1","NA","NA","1","NA","0","42","0","0","0","0","42","42","0","0","42","42","42","42","42","0","0","0","0","0","0","42","42","42","42","42","42","42","42","42","42","0","42","NA","NA","1","NA","0","12/30/15 09:49:53","Default description","no","chinese-japanese-korean","no","18","white","開始實驗A","768","legacy","F:/TCU/Lecture/Experimental_Psychology/2015Fall/Compatibility/3_data_collection/RAW/A-0.csv","xpyriment","Interactive Ising","3.0.4","yes","0","Z","NA","space","space","space","space","space","space","Z","space","824","NA","12120","588","788","532","320723","908","824","1161","legacy","0","experiment","1","odd","NA","NA","NA","NA","537532","NA","NA","NA","NA","525410","595461","NA","NA","331699","NA","597233","595699","331699","NA","598233","592222","575748","598236","587213","9056","9648","10440","10976","8144","4043","598236","593226","575752","598240","587217","598240","338612","594013","599068","599168","6980","595461","NA","NA","537532","NA","4042","Hommel2002EXP01","9","9238","11","yes","1024"
"n","yes","no","rect","83.3333333333","83.3333333333","822","822","black","no","xpyriment","legacy","red","blue","yellow","green","legacy","0","uniform","1","1","/","1","NA","NA","NA","1","NA","NA","1","NA","0","43","0","0","0","0","43","43","0","0","43","43","43","43","43","0","0","0","0","0","0","43","43","43","43","43","43","43","43","43","43","0","43","NA","NA","1","NA","0","12/30/15 09:49:53","Default description","no","chinese-japanese-korean","no","18","white","開始實驗A","768","legacy","F:/TCU/Lecture/Experimental_Psychology/2015Fall/Compatibility/3_data_collection/RAW/A-0.csv","xpyriment","Interactive Ising","3.0.4","yes","0","/","NA","space","space","space","space","space","space","/","space","635","NA","12120","588","788","532","320723","908","635","1161","legacy","500","experiment","1","odd","NA","NA","NA","NA","537532","NA","NA","NA","NA","525410","600553","NA","NA","331699","NA","602378","600830","331699","NA","603378","592222","575748","598236","603381","9056","9648","10440","10976","8144","4043","603881","593226","575752","598240","603884","603885","338612","604525","599068","604625","6980","600553","NA","NA","537532","NA","4042","Hommel2002EXP01","10","9873","12","yes","1024"
"n","yes","no","rect","84.6153846154","84.6153846154","812","812","black","no","xpyriment","legacy","red","yellow","green","blue","legacy","0","uniform","1","1","/","1","NA","NA","NA","1","NA","NA","1","NA","0","44","0","0","0","0","44","44","0","0","44","44","44","44","44","0","0","0","0","0","0","44","44","44","44","44","44","44","44","44","44","0","44","NA","NA","1","NA","0","12/30/15 09:49:53","Default description","no","chinese-japanese-korean","no","18","white","開始實驗A","768","legacy","F:/TCU/Lecture/Experimental_Psychology/2015Fall/Compatibility/3_data_collection/RAW/A-0.csv","xpyriment","Interactive Ising","3.0.4","yes","0","/","NA","space","space","space","space","space","space","/","space","688","NA","12120","588","788","532","320723","908","688","1161","legacy","1500","experiment","1","odd","NA","NA","NA","NA","537532","NA","NA","NA","NA","525410","605996","NA","NA","331699","NA","607759","606216","331699","NA","608759","592222","575748","598236","608762","9056","9648","10440","10976","8144","4043","610262","593226","575752","598240","610265","610265","338612","610956","599068","611057","6980","605996","NA","NA","537532","NA","4042","Hommel2002EXP01","11","10561","13","yes","1024"
"y","yes","no","circle","85.7142857143","85.7142857143","842","842","black","no","xpyriment","legacy","red","blue","yellow","green","legacy","0","uniform","1","1","z","1","NA","NA","NA","1","NA","NA","1","NA","0","45","0","0","0","0","45","45","0","0","45","45","45","45","45","0","0","0","0","0","0","45","45","45","45","45","45","45","45","45","45","0","45","NA","NA","1","NA","0","12/30/15 09:49:53","Default description","no","chinese-japanese-korean","no","18","white","開始實驗A","768","legacy","F:/TCU/Lecture/Experimental_Psychology/2015Fall/Compatibility/3_data_collection/RAW/A-0.csv","xpyriment","Interactive Ising","3.0.4","yes","0","Z","NA","space","space","space","space","space","space","Z","space","1232","NA","12120","588","788","532","320723","908","1232","1161","legacy","1000","experiment","1","odd","NA","NA","NA","NA","537532","NA","NA","NA","NA","525410","612405","NA","NA","331699","NA","614209","612673","331699","NA","615209","615212","575748","598236","608762","9056","9648","10440","10976","8144","4043","616212","616215","575752","598240","610265","616216","338612","617452","599068","617552","6980","612405","NA","NA","537532","NA","4042","Hommel2002EXP01","12","11793","14","yes","1024"
"n","yes","no","circle","86.6666666667","86.6666666667","873","873","black","no","xpyriment","legacy","red","yellow","blue","green","legacy","0","uniform","1","1","z","1","NA","NA","NA","1","NA","NA","1","NA","0","46","0","0","0","0","46","46","0","0","46","46","46","46","46","0","0","0","0","0","0","46","46","46","46","46","46","46","46","46","46","0","46","NA","NA","1","NA","0","12/30/15 09:49:53","Default description","no","chinese-japanese-korean","no","18","white","開始實驗A","768","legacy","F:/TCU/Lecture/Experimental_Psychology/2015Fall/Compatibility/3_data_collection/RAW/A-0.csv","xpyriment","Interactive Ising","3.0.4","yes","0","Z","NA","space","space","space","space","space","space","Z","space","1316","NA","12120","588","788","532","320723","908","1316","1161","legacy","0","experiment","1","odd","NA","NA","NA","NA","537532","NA","NA","NA","NA","525410","618958","NA","NA","331699","NA","620886","619382","331699","NA","621886","615212","621889","598236","608762","9056","9648","10440","10976","8144","4043","621889","616215","621893","598240","610265","621893","338612","623213","599068","623313","6980","618958","NA","NA","537532","NA","4042","Hommel2002EXP01","13","13109","15","yes","1024"
"y","yes","no","rect","81.25","81.25","858","858","black","no","xpyriment","legacy","yellow","blue","green","red","legacy","0","uniform","0","0","/","1","NA","NA","NA","1","NA","NA","1","NA","0","47","0","0","0","0","47","47","0","0","47","47","47","47","47","0","0","0","0","0","0","47","47","47","47","47","47","47","47","47","47","0","47","NA","NA","1","NA","0","12/30/15 09:49:53","Default description","no","chinese-japanese-korean","no","18","white","開始實驗A","768","legacy","F:/TCU/Lecture/Experimental_Psychology/2015Fall/Compatibility/3_data_collection/RAW/A-0.csv","xpyriment","Interactive Ising","3.0.4","yes","0","Z","NA","space","space","space","space","space","space","Z","space","626","NA","12120","588","788","532","320723","908","626","1161","legacy","1500","experiment","1","odd","NA","NA","NA","NA","537532","NA","NA","NA","NA","525410","624880","NA","NA","331699","NA","626603","625067","331699","NA","627603","615212","621889","627606","608762","9056","9648","10440","10976","8144","4043","629106","616215","621893","629110","610265","629111","338612","623213","629740","629840","6980","624880","NA","NA","537532","NA","4042","Hommel2002EXP01","13","13735","16","yes","1024"
"y","yes","no","circle","82.3529411765","82.3529411765","905","905","black","no","xpyriment","legacy","green","red","yellow","blue","legacy","0","uniform","1","1","z","1","NA","NA","NA","1","NA","NA","1","NA","0","48","0","0","0","0","48","48","0","0","48","48","48","48","48","0","0","0","0","0","0","48","48","48","48","48","48","48","48","48","48","0","48","NA","NA","1","NA","0","12/30/15 09:49:53","Default description","no","chinese-japanese-korean","no","18","white","開始實驗A","768","legacy","F:/TCU/Lecture/Experimental_Psychology/2015Fall/Compatibility/3_data_collection/RAW/A-0.csv","xpyriment","Interactive Ising","3.0.4","yes","0","Z","NA","space","space","space","space","space","space","Z","space","1650","NA","12120","588","788","532","320723","908","1650","1161","legacy","1500","experiment","1","odd","NA","NA","NA","NA","537532","NA","NA","NA","NA","525410","631195","NA","NA","331699","NA","632987","631441","331699","NA","633987","633990","621889","627606","608762","9056","9648","10440","10976","8144","4043","635490","635494","621893","629110","610265","635494","338612","637148","629740","637248","6980","631195","NA","NA","537532","NA","4042","Hommel2002EXP01","14","15385","17","yes","1024"
"n","yes","no","rect","83.3333333333","83.3333333333","894","894","black","no","xpyriment","legacy","yellow","green","blue","red","legacy","0","uniform","1","1","/","1","NA","NA","NA","1","NA","NA","1","NA","0","49","0","0","0","0","49","49","0","0","49","49","49","49","49","0","0","0","0","0","0","49","49","49","49","49","49","49","49","49","49","0","49","NA","NA","1","NA","0","12/30/15 09:49:53","Default description","no","chinese-japanese-korean","no","18","white","開始實驗A","768","legacy","F:/TCU/Lecture/Experimental_Psychology/2015Fall/Compatibility/3_data_collection/RAW/A-0.csv","xpyriment","Interactive Ising","3.0.4","yes","0","/","NA","space","space","space","space","space","space","/","space","724","NA","12120","588","788","532","320723","908","724","1161","legacy","1500","experiment","1","odd","NA","NA","NA","NA","537532","NA","NA","NA","NA","525410","638651","NA","NA","331699","NA","640483","638943","331699","NA","641483","633990","621889","627606","641486","9056","9648","10440","10976","8144","4043","642986","635494","621893","629110","642989","642989","338612","643716","629740","643816","6980","638651","NA","NA","537532","NA","4042","Hommel2002EXP01","15","16109","18","yes","1024"
"n","yes","no","circle","84.2105263158","84.2105263158","886","886","black","no","xpyriment","legacy","yellow","red","green","blue","legacy","0","uniform","1","1","z","1","NA","NA","NA","1","NA","NA","1","NA","0","50","0","0","0","0","50","50","0","0","50","50","50","50","50","0","0","0","0","0","0","50","50","50","50","50","50","50","50","50","50","0","50","NA","NA","1","NA","0","12/30/15 09:49:53","Default description","no","chinese-japanese-korean","no","18","white","開始實驗A","768","legacy","F:/TCU/Lecture/Experimental_Psychology/2015Fall/Compatibility/3_data_collection/RAW/A-0.csv","xpyriment","Interactive Ising","3.0.4","yes","0","Z","NA","space","space","space","space","space","space","Z","space","741","NA","12120","588","788","532","320723","908","741","1161","legacy","1000","experiment","1","odd","NA","NA","NA","NA","537532","NA","NA","NA","NA","525410","645218","NA","NA","331699","NA","647051","645509","331699","NA","648051","633990","648054","627606","641486","9056","9648","10440","10976","8144","4043","649054","635494","649058","629110","642989","649059","338612","649804","629740","649904","6980","645217","NA","NA","537532","NA","4042","Hommel2002EXP01","16","16850","19","yes","1024"
"n","yes","no","rect","85","85","876","876","black","no","xpyriment","legacy","yellow","red","blue","green","legacy","0","uniform","1","1","/","1","NA","NA","NA","1","NA","NA","1","NA","0","51","0","0","0","0","51","51","0","0","51","51","51","51","51","0","0","0","0","0","0","51","51","51","51","51","51","51","51","51","51","0","51","NA","NA","1","NA","0","12/30/15 09:49:53","Default description","no","chinese-japanese-korean","no","18","white","開始實驗A","768","legacy","F:/TCU/Lecture/Experimental_Psychology/2015Fall/Compatibility/3_data_collection/RAW/A-0.csv","xpyriment","Interactive Ising","3.0.4","yes","0","/","NA","space","space","space","space","space","space","/","space","688","NA","12120","588","788","532","320723","908","688","1161","legacy","1000","experiment","1","odd","NA","NA","NA","NA","537532","NA","NA","NA","NA","525410","651255","NA","NA","331699","NA","653056","651516","331699","NA","654056","633990","648054","627606","654060","9056","9648","10440","10976","8144","4043","655061","635494","649058","629110","655064","655064","338612","655756","629740","655856","6980","651255","NA","NA","537532","NA","4042","Hommel2002EXP01","17","17538","20","yes","1024"
"y","yes","no","rect","85.7142857143","85.7142857143","878","878","black","no","xpyriment","legacy","green","yellow","red","blue","legacy","0","uniform","1","1","/","1","NA","NA","NA","1","NA","NA","1","NA","0","52","0","0","0","0","52","52","0","0","52","52","52","52","52","0","0","0","0","0","0","52","52","52","52","52","52","52","52","52","52","0","52","NA","NA","1","NA","0","12/30/15 09:49:53","Default description","no","chinese-japanese-korean","no","18","white","開始實驗A","768","legacy","F:/TCU/Lecture/Experimental_Psychology/2015Fall/Compatibility/3_data_collection/RAW/A-0.csv","xpyriment","Interactive Ising","3.0.4","yes","0","/","NA","space","space","space","space","space","space","/","space","901","NA","12120","588","788","532","320723","908","901","1161","legacy","1000","experiment","1","odd","NA","NA","NA","NA","537532","NA","NA","NA","NA","525410","657284","NA","NA","331699","NA","659189","657685","331699","NA","660189","633990","648054","660193","654060","9056","9648","10440","10976","8144","4043","661193","635494","649058","661196","655064","661196","338612","662100","629740","662200","6980","657284","NA","NA","537532","NA","4042","Hommel2002EXP01","18","18439","21","yes","1024"
"y","yes","no","rect","86.3636363636","86.3636363636","871","871","black","no","xpyriment","legacy","red","yellow","blue","green","legacy","0","uniform","1","1","/","1","NA","NA","NA","1","NA","NA","1","NA","0","53","0","0","0","0","53","53","0","0","53","53","53","53","53","0","0","0","0","0","0","53","53","53","53","53","53","53","53","53","53","0","53","NA","NA","1","NA","0","12/30/15 09:49:53","Default description","no","chinese-japanese-korean","no","18","white","開始實驗A","768","legacy","F:/TCU/Lecture/Experimental_Psychology/2015Fall/Compatibility/3_data_collection/RAW/A-0.csv","xpyriment","Interactive Ising","3.0.4","yes","0","/","NA","space","space","space","space","space","space","/","space","729","NA","12120","588","788","532","320723","908","729","1161","legacy","1000","experiment","1","odd","NA","NA","NA","NA","537532","NA","NA","NA","NA","525410","663711","NA","NA","331699","NA","665481","663944","331699","NA","666481","633990","648054","666484","654060","9056","9648","10440","10976","8144","4043","667484","635494","649058","667487","655064","667487","338612","668220","629740","668320","6980","663710","NA","NA","537532","NA","4042","Hommel2002EXP01","19","19168","22","yes","1024"
"y","yes","no","rect","82.6086956522","82.6086956522","870","870","black","no","xpyriment","legacy","blue","green","yellow","red","legacy","0","uniform","0","0","/","1","NA","NA","NA","1","NA","NA","1","NA","0","54","0","0","0","0","54","54","0","0","54","54","54","54","54","0","0","0","0","0","0","54","54","54","54","54","54","54","54","54","54","0","54","NA","NA","1","NA","0","12/30/15 09:49:53","Default description","no","chinese-japanese-korean","no","18","white","開始實驗A","768","legacy","F:/TCU/Lecture/Experimental_Psychology/2015Fall/Compatibility/3_data_collection/RAW/A-0.csv","xpyriment","Interactive Ising","3.0.4","yes","0","Z","NA","space","space","space","space","space","space","Z","space","846","NA","12120","588","788","532","320723","908","846","1161","legacy","500","experiment","1","odd","NA","NA","NA","NA","537532","NA","NA","NA","NA","525410","669664","NA","NA","331699","NA","671463","669919","331699","NA","672464","633990","648054","672467","654060","9056","9648","10440","10976","8144","4043","672967","635494","649058","672970","655064","672970","338612","668220","673819","673919","6980","669664","NA","NA","537532","NA","4042","Hommel2002EXP01","19","20014","23","yes","1024"
"y","yes","no","rect","83.3333333333","83.3333333333","866","866","black","no","xpyriment","legacy","red","green","yellow","blue","legacy","0","uniform","1","1","/","1","NA","NA","NA","1","NA","NA","1","NA","0","55","0","0","0","0","55","55","0","0","55","55","55","55","55","0","0","0","0","0","0","55","55","55","55","55","55","55","55","55","55","0","55","NA","NA","1","NA","0","12/30/15 09:49:53","Default description","no","chinese-japanese-korean","no","18","white","開始實驗A","768","legacy","F:/TCU/Lecture/Experimental_Psychology/2015Fall/Compatibility/3_data_collection/RAW/A-0.csv","xpyriment","Interactive Ising","3.0.4","yes","0","/","NA","space","space","space","space","space","space","/","space","787","NA","12120","588","788","532","320723","908","787","1161","legacy","500","experiment","1","odd","NA","NA","NA","NA","537532","NA","NA","NA","NA","525410","675283","NA","NA","331699","NA","677115","675575","331699","NA","678115","633990","648054","678118","654060","9056","9648","10440","10976","8144","4043","678618","635494","649058","678621","655064","678621","338612","679412","673819","679512","6980","675282","NA","NA","537532","NA","4042","Hommel2002EXP01","20","20801","24","yes","1024"
"y","yes","no","rect","84","84","862","862","black","no","xpyriment","legacy","green","yellow","blue","red","legacy","0","uniform","1","1","/","1","NA","NA","NA","1","NA","NA","1","NA","0","56","0","0","0","0","56","56","0","0","56","56","56","56","56","0","0","0","0","0","0","56","56","56","56","56","56","56","56","56","56","0","56","NA","NA","1","NA","0","12/30/15 09:49:53","Default description","no","chinese-japanese-korean","no","18","white","開始實驗A","768","legacy","F:/TCU/Lecture/Experimental_Psychology/2015Fall/Compatibility/3_data_collection/RAW/A-0.csv","xpyriment","Interactive Ising","3.0.4","yes","0","/","NA","space","space","space","space","space","space","/","space","751","NA","12120","588","788","532","320723","908","751","1161","legacy","1500","experiment","1","odd","NA","NA","NA","NA","537532","NA","NA","NA","NA","525410","680877","NA","NA","331699","NA","682701","681165","331699","NA","683701","633990","648054","683704","654060","9056","9648","10440","10976","8144","4043","685204","635494","649058","685208","655064","685209","338612","685964","673819","686064","6980","680877","NA","NA","537532","NA","4042","Hommel2002EXP01","21","21552","25","yes","1024"
"y","yes","no","circle","84.6153846154","84.6153846154","876","876","black","no","xpyriment","legacy","red","yellow","blue","green","legacy","0","uniform","1","1","z","1","NA","NA","NA","1","NA","NA","1","NA","0","57","0","0","0","0","57","57","0","0","57","57","57","57","57","0","0","0","0","0","0","57","57","57","57","57","57","57","57","57","57","0","57","NA","NA","1","NA","0","12/30/15 09:49:53","Default description","no","chinese-japanese-korean","no","18","white","開始實驗A","768","legacy","F:/TCU/Lecture/Experimental_Psychology/2015Fall/Compatibility/3_data_collection/RAW/A-0.csv","xpyriment","Interactive Ising","3.0.4","yes","0","Z","NA","space","space","space","space","space","space","Z","space","1233","NA","12120","588","788","532","320723","908","1233","1161","legacy","0","experiment","1","odd","NA","NA","NA","NA","537532","NA","NA","NA","NA","525410","687434","NA","NA","331699","NA","689271","687729","331699","NA","690271","690276","648054","683704","654060","9056","9648","10440","10976","8144","4043","690276","690279","649058","685208","655064","690279","338612","691515","673819","691615","6980","687434","NA","NA","537532","NA","4042","Hommel2002EXP01","22","22785","26","yes","1024"
"y","yes","no","circle","85.1851851852","85.1851851852","881","881","black","no","xpyriment","legacy","yellow","red","green","blue","legacy","0","uniform","1","1","z","1","NA","NA","NA","1","NA","NA","1","NA","0","58","0","0","0","0","58","58","0","0","58","58","58","58","58","0","0","0","0","0","0","58","58","58","58","58","58","58","58","58","58","0","58","NA","NA","1","NA","0","12/30/15 09:49:53","Default description","no","chinese-japanese-korean","no","18","white","開始實驗A","768","legacy","F:/TCU/Lecture/Experimental_Psychology/2015Fall/Compatibility/3_data_collection/RAW/A-0.csv","xpyriment","Interactive Ising","3.0.4","yes","0","Z","NA","space","space","space","space","space","space","Z","space","1006","NA","12120","588","788","532","320723","908","1006","1161","legacy","0","experiment","1","odd","NA","NA","NA","NA","537532","NA","NA","NA","NA","525410","693000","NA","NA","331699","NA","694907","693368","331699","NA","695907","695911","648054","683704","654060","9056","9648","10440","10976","8144","4043","695911","695914","649058","685208","655064","695914","338612","696925","673819","697025","6980","692999","NA","NA","537532","NA","4042","Hommel2002EXP01","23","23791","27","yes","1024"
"n","yes","no","circle","85.7142857143","85.7142857143","876","876","black","no","xpyriment","legacy","green","yellow","blue","red","legacy","0","uniform","1","1","z","1","NA","NA","NA","1","NA","NA","1","NA","0","59","0","0","0","0","59","59","0","0","59","59","59","59","59","0","0","0","0","0","0","59","59","59","59","59","59","59","59","59","59","0","59","NA","NA","1","NA","0","12/30/15 09:49:53","Default description","no","chinese-japanese-korean","no","18","white","開始實驗A","768","legacy","F:/TCU/Lecture/Experimental_Psychology/2015Fall/Compatibility/3_data_collection/RAW/A-0.csv","xpyriment","Interactive Ising","3.0.4","yes","0","Z","NA","space","space","space","space","space","space","Z","space","754","NA","12120","588","788","532","320723","908","754","1161","legacy","1500","experiment","1","odd","NA","NA","NA","NA","537532","NA","NA","NA","NA","525410","698478","NA","NA","331699","NA","700508","699004","331699","NA","701508","695911","701511","683704","654060","9056","9648","10440","10976","8144","4043","703011","695914","703014","685208","655064","703014","338612","703771","673819","703871","6980","698477","NA","NA","537532","NA","4042","Hommel2002EXP01","24","24545","28","yes","1024"
"y","yes","no","circle","82.7586206897","82.7586206897","889","889","black","no","xpyriment","legacy","blue","green","red","yellow","legacy","0","uniform","0","0","z","1","NA","NA","NA","1","NA","NA","1","NA","0","60","0","0","0","0","60","60","0","0","60","60","60","60","60","0","0","0","0","0","0","60","60","60","60","60","60","60","60","60","60","0","60","NA","NA","1","NA","0","12/30/15 09:49:53","Default description","no","chinese-japanese-korean","no","18","white","開始實驗A","768","legacy","F:/TCU/Lecture/Experimental_Psychology/2015Fall/Compatibility/3_data_collection/RAW/A-0.csv","xpyriment","Interactive Ising","3.0.4","yes","0","/","NA","space","space","space","space","space","space","/","space","1254","NA","12120","588","788","532","320723","908","1254","1161","legacy","500","experiment","1","odd","NA","NA","NA","NA","537532","NA","NA","NA","NA","525410","705338","NA","NA","331699","NA","707094","705557","331699","NA","708094","708097","701511","683704","654060","9056","9648","10440","10976","8144","4043","708597","708600","703014","685208","655064","708601","338612","703771","709860","709960","6980","705338","NA","NA","537532","NA","4042","Hommel2002EXP01","24","25799","29","yes","1024"
"n","yes","no","circle","83.3333333333","83.3333333333","890","890","black","no","xpyriment","legacy","yellow","red","blue","green","legacy","0","uniform","1","1","z","1","NA","NA","NA","1","NA","NA","1","NA","0","61","0","0","0","0","61","61","0","0","61","61","61","61","61","0","0","0","0","0","0","61","61","61","61","61","61","61","61","61","61","0","61","NA","NA","1","NA","0","12/30/15 09:49:53","Default description","no","chinese-japanese-korean","no","18","white","開始實驗A","768","legacy","F:/TCU/Lecture/Experimental_Psychology/2015Fall/Compatibility/3_data_collection/RAW/A-0.csv","xpyriment","Interactive Ising","3.0.4","yes","0","Z","NA","space","space","space","space","space","space","Z","space","913","NA","12120","588","788","532","320723","908","913","1161","legacy","1500","experiment","1","odd","NA","NA","NA","NA","537532","NA","NA","NA","NA","525410","711323","NA","NA","331699","NA","713109","711580","331699","NA","714109","708097","714112","683704","654060","9056","9648","10440","10976","8144","4043","715612","708600","715615","685208","655064","715615","338612","716532","709860","716632","6980","711323","NA","NA","537532","NA","4042","Hommel2002EXP01","25","26712","30","yes","1024"
"n","yes","no","rect","83.8709677419","83.8709677419","890","890","black","no","xpyriment","legacy","green","red","blue","yellow","legacy","0","uniform","1","1","/","1","NA","NA","NA","1","NA","NA","1","NA","0","62","0","0","0","0","62","62","0","0","62","62","62","62","62","0","0","0","0","0","0","62","62","62","62","62","62","62","62","62","62","0","62","NA","NA","1","NA","0","12/30/15 09:49:53","Default description","no","chinese-japanese-korean","no","18","white","開始實驗A","768","legacy","F:/TCU/Lecture/Experimental_Psychology/2015Fall/Compatibility/3_data_collection/RAW/A-0.csv","xpyriment","Interactive Ising","3.0.4","yes","0","/","NA","space","space","space","space","space","space","/","space","898","NA","12120","588","788","532","320723","908","898","1161","legacy","0","experiment","1","odd","NA","NA","NA","NA","537532","NA","NA","NA","NA","525410","717979","NA","NA","331699","NA","719805","718269","331699","NA","720806","708097","714112","683704","720810","9056","9648","10440","10976","8144","4043","720810","708600","715615","685208","720814","720814","338612","721715","709860","721815","6980","717979","NA","NA","537532","NA","4042","Hommel2002EXP01","26","27610","31","yes","1024"
"y","yes","no","circle","84.375","84.375","888","888","black","no","xpyriment","legacy","yellow","red","green","blue","legacy","0","uniform","1","1","z","1","NA","NA","NA","1","NA","NA","1","NA","0","63","0","0","0","0","63","63","0","0","63","63","63","63","63","0","0","0","0","0","0","63","63","63","63","63","63","63","63","63","63","0","63","NA","NA","1","NA","0","12/30/15 09:49:53","Default description","no","chinese-japanese-korean","no","18","white","開始實驗A","768","legacy","F:/TCU/Lecture/Experimental_Psychology/2015Fall/Compatibility/3_data_collection/RAW/A-0.csv","xpyriment","Interactive Ising","3.0.4","yes","0","Z","NA","space","space","space","space","space","space","Z","space","822","NA","12120","588","788","532","320723","908","822","1161","legacy","1500","experiment","1","odd","NA","NA","NA","NA","537532","NA","NA","NA","NA","525410","723193","NA","NA","331699","NA","725047","723499","331699","NA","726047","726050","714112","683704","720810","9056","9648","10440","10976","8144","4043","727550","727553","715615","685208","720814","727554","338612","728380","709860","728480","6980","723193","NA","NA","537532","NA","4042","Hommel2002EXP01","27","28432","32","yes","1024"
"n","yes","no","rect","100","100","664","664","black","no","xpyriment","legacy","green","red","blue","yellow","legacy","0","uniform","1","1","/","1","0","NA","NA","1","0","NA","1","NA","1","64","0","0","0","0","64","64","0","0","64","64","64","64","64","0","0","0","0","0","0","64","64","64","64","64","64","64","64","64","64","0","64","0","NA","1","NA","0","12/30/15 09:49:53","Default description","no","chinese-japanese-korean","no","18","white","開始實驗A","768","legacy","F:/TCU/Lecture/Experimental_Psychology/2015Fall/Compatibility/3_data_collection/RAW/A-0.csv","xpyriment","Interactive Ising","3.0.4","no","0","/","space","space","space","space","space","space","space","/","space","664","7891","11482","588","788","532","320723","908","664","1161","legacy","1000","experiment","1","odd","740197","748091","NA","NA","537532","NA","NA","NA","NA","728710","749419","748088","NA","331699","NA","751266","749717","331699","NA","752266","726050","714112","683704","752269","9056","9648","10440","10976","8144","4043","753269","727553","715615","685208","753272","753272","338612","753939","709860","754039","6980","749419","748091","NA","537532","NA","4042","Hommel2002EXP01","1","664","1","yes","1024"
"n","yes","no","circle","100","100","1007","1007","black","no","xpyriment","legacy","yellow","green","red","blue","legacy","0","uniform","1","1","z","1","0","NA","NA","1","0","NA","1","NA","1","65","0","0","0","0","65","65","0","0","65","65","65","65","65","0","0","0","0","0","0","65","65","65","65","65","65","65","65","65","65","0","65","0","NA","1","NA","0","12/30/15 09:49:53","Default description","no","chinese-japanese-korean","no","18","white","開始實驗A","768","legacy","F:/TCU/Lecture/Experimental_Psychology/2015Fall/Compatibility/3_data_collection/RAW/A-0.csv","xpyriment","Interactive Ising","3.0.4","no","0","Z","space","space","space","space","space","space","space","Z","space","1350","7891","11482","588","788","532","320723","908","1350","1161","legacy","1000","experiment","1","odd","740197","748091","NA","NA","537532","NA","NA","NA","NA","728710","755473","748088","NA","331699","NA","757491","755986","331699","NA","758491","726050","758494","683704","752269","9056","9648","10440","10976","8144","4043","759494","727553","759497","685208","753272","759497","338612","760851","709860","760951","6980","755473","748091","NA","537532","NA","4042","Hommel2002EXP01","2","2014","2","yes","1024"
"n","yes","no","rect","66.6666666667","66.6666666667","984","984","black","no","xpyriment","legacy","yellow","blue","red","green","legacy","0","uniform","0","0","/","1","0","NA","NA","1","0","NA","1","NA","1","66","0","0","0","0","66","66","0","0","66","66","66","66","66","0","0","0","0","0","0","66","66","66","66","66","66","66","66","66","66","0","66","0","NA","1","NA","0","12/30/15 09:49:53","Default description","no","chinese-japanese-korean","no","18","white","開始實驗A","768","legacy","F:/TCU/Lecture/Experimental_Psychology/2015Fall/Compatibility/3_data_collection/RAW/A-0.csv","xpyriment","Interactive Ising","3.0.4","no","0","Z","space","space","space","space","space","space","space","Z","space","939","7891","11482","588","788","532","320723","908","939","1161","legacy","1000","experiment","1","odd","740197","748091","NA","NA","537532","NA","NA","NA","NA","728710","762435","748088","NA","331699","NA","764205","762666","331699","NA","765205","726050","758494","683704","765209","9056","9648","10440","10976","8144","4043","766210","727553","759497","685208","766213","766213","338612","760851","767155","767256","6980","762435","748091","NA","537532","NA","4042","Hommel2002EXP01","2","2953","3","yes","1024"
"n","yes","no","rect","75","75","963","963","black","no","xpyriment","legacy","green","yellow","red","blue","legacy","0","uniform","1","1","/","1","0","NA","NA","1","0","NA","1","NA","1","67","0","0","0","0","67","67","0","0","67","67","67","67","67","0","0","0","0","0","0","67","67","67","67","67","67","67","67","67","67","0","67","0","NA","1","NA","0","12/30/15 09:49:53","Default description","no","chinese-japanese-korean","no","18","white","開始實驗A","768","legacy","F:/TCU/Lecture/Experimental_Psychology/2015Fall/Compatibility/3_data_collection/RAW/A-0.csv","xpyriment","Interactive Ising","3.0.4","no","0","/","space","space","space","space","space","space","space","/","space","901","7891","11482","588","788","532","320723","908","901","1161","legacy","0","experiment","1","odd","740197","748091","NA","NA","537532","NA","NA","NA","NA","728710","768709","748088","NA","331699","NA","770507","768970","331699","NA","771507","726050","758494","683704","771510","9056","9648","10440","10976","8144","4043","771511","727553","759497","685208","771514","771514","338612","772419","767155","772519","6980","768708","748091","NA","537532","NA","4042","Hommel2002EXP01","3","3854","4","yes","1024"
"y","yes","no","circle","80","80","1028","1028","black","no","xpyriment","legacy","red","green","yellow","blue","legacy","0","uniform","1","1","z","1","0","NA","NA","1","0","NA","1","NA","1","68","0","0","0","0","68","68","0","0","68","68","68","68","68","0","0","0","0","0","0","68","68","68","68","68","68","68","68","68","68","0","68","0","NA","1","NA","0","12/30/15 09:49:53","Default description","no","chinese-japanese-korean","no","18","white","開始實驗A","768","legacy","F:/TCU/Lecture/Experimental_Psychology/2015Fall/Compatibility/3_data_collection/RAW/A-0.csv","xpyriment","Interactive Ising","3.0.4","no","0","Z","space","space","space","space","space","space","space","Z","space","1289","7891","11482","588","788","532","320723","908","1289","1161","legacy","1000","experiment","1","odd","740197","748091","NA","NA","537532","NA","NA","NA","NA","728710","773887","748088","NA","331699","NA","775719","774175","331699","NA","776719","776722","758494","683704","771510","9056","9648","10440","10976","8144","4043","777722","777726","759497","685208","771514","777726","338612","779019","767155","779119","6980","773886","748091","NA","537532","NA","4042","Hommel2002EXP01","4","5143","5","yes","1024"
"n","yes","no","circle","83.3333333333","83.3333333333","982","982","black","no","xpyriment","legacy","red","green","blue","yellow","legacy","0","uniform","1","1","z","1","0","NA","NA","1","0","NA","1","NA","1","69","0","0","0","0","69","69","0","0","69","69","69","69","69","0","0","0","0","0","0","69","69","69","69","69","69","69","69","69","69","0","69","0","NA","1","NA","0","12/30/15 09:49:53","Default description","no","chinese-japanese-korean","no","18","white","開始實驗A","768","legacy","F:/TCU/Lecture/Experimental_Psychology/2015Fall/Compatibility/3_data_collection/RAW/A-0.csv","xpyriment","Interactive Ising","3.0.4","no","0","Z","space","space","space","space","space","space","space","Z","space","751","7891","11482","588","788","532","320723","908","751","1161","legacy","0","experiment","1","odd","740197","748091","NA","NA","537532","NA","NA","NA","NA","728710","780515","748088","NA","331699","NA","782385","780841","331699","NA","783385","776722","783388","683704","771510","9056","9648","10440","10976","8144","4043","783388","777726","783393","685208","771514","783393","338612","784147","767155","784247","6980","780515","748091","NA","537532","NA","4042","Hommel2002EXP01","5","5894","6","yes","1024"
"n","yes","no","rect","85.7142857143","85.7142857143","960","960","black","no","xpyriment","legacy","red","yellow","blue","green","legacy","0","uniform","1","1","/","1","0","NA","NA","1","0","NA","1","NA","1","70","0","0","0","0","70","70","0","0","70","70","70","70","70","0","0","0","0","0","0","70","70","70","70","70","70","70","70","70","70","0","70","0","NA","1","NA","0","12/30/15 09:49:53","Default description","no","chinese-japanese-korean","no","18","white","開始實驗A","768","legacy","F:/TCU/Lecture/Experimental_Psychology/2015Fall/Compatibility/3_data_collection/RAW/A-0.csv","xpyriment","Interactive Ising","3.0.4","no","0","/","space","space","space","space","space","space","space","/","space","826","7891","11482","588","788","532","320723","908","826","1161","legacy","500","experiment","1","odd","740197","748091","NA","NA","537532","NA","NA","NA","NA","728710","785631","748088","NA","331699","NA","787514","785972","331699","NA","788514","776722","783388","683704","788517","9056","9648","10440","10976","8144","4043","789017","777726","783393","685208","789020","789021","338612","789851","767155","789951","6980","785631","748091","NA","537532","NA","4042","Hommel2002EXP01","6","6720","7","yes","1024"
"y","yes","no","rect","87.5","87.5","955","955","black","no","xpyriment","legacy","yellow","blue","green","red","legacy","0","uniform","1","1","/","1","0","NA","NA","1","0","NA","1","NA","1","71","0","0","0","0","71","71","0","0","71","71","71","71","71","0","0","0","0","0","0","71","71","71","71","71","71","71","71","71","71","0","71","0","NA","1","NA","0","12/30/15 09:49:53","Default description","no","chinese-japanese-korean","no","18","white","開始實驗A","768","legacy","F:/TCU/Lecture/Experimental_Psychology/2015Fall/Compatibility/3_data_collection/RAW/A-0.csv","xpyriment","Interactive Ising","3.0.4","no","0","/","space","space","space","space","space","space","space","/","space","926","7891","11482","588","788","532","320723","908","926","1161","legacy","500","experiment","1","odd","740197","748091","NA","NA","537532","NA","NA","NA","NA","728710","791413","748088","NA","331699","NA","793415","791911","331699","NA","794415","776722","783388","794418","788517","9056","9648","10440","10976","8144","4043","794918","777726","783393","794921","789020","794921","338612","795851","767155","795951","6980","791413","748091","NA","537532","NA","4042","Hommel2002EXP01","7","7646","8","yes","1024"
"y","yes","no","circle","88.8888888889","88.8888888889","936","936","black","no","xpyriment","legacy","green","blue","yellow","red","legacy","0","uniform","1","1","z","1","0","NA","NA","1","0","NA","1","NA","1","72","0","0","0","0","72","72","0","0","72","72","72","72","72","0","0","0","0","0","0","72","72","72","72","72","72","72","72","72","72","0","72","0","NA","1","NA","0","12/30/15 09:49:53","Default description","no","chinese-japanese-korean","no","18","white","開始實驗A","768","legacy","F:/TCU/Lecture/Experimental_Psychology/2015Fall/Compatibility/3_data_collection/RAW/A-0.csv","xpyriment","Interactive Ising","3.0.4","no","0","Z","space","space","space","space","space","space","space","Z","space","784","7891","11482","588","788","532","320723","908","784","1161","legacy","1000","experiment","1","odd","740197","748091","NA","NA","537532","NA","NA","NA","NA","728710","797544","748088","NA","331699","NA","799271","797729","331699","NA","800271","800276","783388","794418","788517","9056","9648","10440","10976","8144","4043","801276","801279","783393","794921","789020","801280","338612","802067","767155","802167","6980","797543","748091","NA","537532","NA","4042","Hommel2002EXP01","8","8430","9","yes","1024"
"y","yes","no","rect","80","80","972","972","black","no","xpyriment","legacy","blue","red","green","yellow","legacy","0","uniform","0","0","/","1","0","NA","NA","1","0","NA","1","NA","1","73","0","0","0","0","73","73","0","0","73","73","73","73","73","0","0","0","0","0","0","73","73","73","73","73","73","73","73","73","73","0","73","0","NA","1","NA","0","12/30/15 09:49:53","Default description","no","chinese-japanese-korean","no","18","white","開始實驗A","768","legacy","F:/TCU/Lecture/Experimental_Psychology/2015Fall/Compatibility/3_data_collection/RAW/A-0.csv","xpyriment","Interactive Ising","3.0.4","no","0","Z","space","space","space","space","space","space","space","Z","space","1293","7891","11482","588","788","532","320723","908","1293","1161","legacy","0","experiment","1","odd","740197","748091","NA","NA","537532","NA","NA","NA","NA","728710","803514","748088","NA","331699","NA","805299","803759","331699","NA","806299","800276","783388","806302","788517","9056","9648","10440","10976","8144","4043","806302","801279","783393","806306","789020","806306","338612","802067","807603","807703","6980","803514","748091","NA","537532","NA","4042","Hommel2002EXP01","8","9723","10","yes","1024"
"y","yes","no","circle","81.8181818182","81.8181818182","985","985","black","no","xpyriment","legacy","red","blue","yellow","green","legacy","0","uniform","1","1","z","1","0","NA","NA","1","0","NA","1","NA","1","74","0","0","0","0","74","74","0","0","74","74","74","74","74","0","0","0","0","0","0","74","74","74","74","74","74","74","74","74","74","0","74","0","NA","1","NA","0","12/30/15 09:49:53","Default description","no","chinese-japanese-korean","no","18","white","開始實驗A","768","legacy","F:/TCU/Lecture/Experimental_Psychology/2015Fall/Compatibility/3_data_collection/RAW/A-0.csv","xpyriment","Interactive Ising","3.0.4","no","0","Z","space","space","space","space","space","space","space","Z","space","1119","7891","11482","588","788","532","320723","908","1119","1161","legacy","0","experiment","1","odd","740197","748091","NA","NA","537532","NA","NA","NA","NA","728710","809111","748088","NA","331699","NA","810936","809394","331699","NA","811936","811940","783388","806302","788517","9056","9648","10440","10976","8144","4043","811941","811944","783393","806306","789020","811944","338612","813067","807603","813167","6980","809111","748091","NA","537532","NA","4042","Hommel2002EXP01","9","10842","11","yes","1024"
"y","yes","no","circle","83.3333333333","83.3333333333","973","973","black","no","xpyriment","legacy","green","blue","yellow","red","legacy","0","uniform","1","1","z","1","0","NA","NA","1","0","NA","1","NA","1","75","0","0","0","0","75","75","0","0","75","75","75","75","75","0","0","0","0","0","0","75","75","75","75","75","75","75","75","75","75","0","75","0","NA","1","NA","0","12/30/15 09:49:53","Default description","no","chinese-japanese-korean","no","18","white","開始實驗A","768","legacy","F:/TCU/Lecture/Experimental_Psychology/2015Fall/Compatibility/3_data_collection/RAW/A-0.csv","xpyriment","Interactive Ising","3.0.4","no","0","Z","space","space","space","space","space","space","space","Z","space","838","7891","11482","588","788","532","320723","908","838","1161","legacy","1500","experiment","1","odd","740197","748091","NA","NA","537532","NA","NA","NA","NA","728710","814527","748088","NA","331699","NA","816382","814846","331699","NA","817382","817385","783388","806302","788517","9056","9648","10440","10976","8144","4043","818885","818888","783393","806306","789020","818889","338612","819731","807603","819831","6980","814527","748091","NA","537532","NA","4042","Hommel2002EXP01","10","11680","12","yes","1024"
"y","yes","no","circle","84.6153846154","84.6153846154","972","972","black","no","xpyriment","legacy","blue","yellow","green","red","legacy","0","uniform","1","1","z","1","0","NA","NA","1","0","NA","1","NA","1","76","0","0","0","0","76","76","0","0","76","76","76","76","76","0","0","0","0","0","0","76","76","76","76","76","76","76","76","76","76","0","76","0","NA","1","NA","0","12/30/15 09:49:53","Default description","no","chinese-japanese-korean","no","18","white","開始實驗A","768","legacy","F:/TCU/Lecture/Experimental_Psychology/2015Fall/Compatibility/3_data_collection/RAW/A-0.csv","xpyriment","Interactive Ising","3.0.4","no","0","Z","space","space","space","space","space","space","space","Z","space","957","7891","11482","588","788","532","320723","908","957","1161","legacy","0","experiment","1","odd","740197","748091","NA","NA","537532","NA","NA","NA","NA","728710","821221","748088","NA","331699","NA","823059","821512","331699","NA","824059","824062","783388","806302","788517","9056","9648","10440","10976","8144","4043","824062","824066","783393","806306","789020","824066","338612","825027","807603","825127","6980","821221","748091","NA","537532","NA","4042","Hommel2002EXP01","11","12637","13","yes","1024"
"n","yes","no","circle","85.7142857143","85.7142857143","985","985","black","no","xpyriment","legacy","green","yellow","blue","red","legacy","0","uniform","1","1","z","1","0","NA","NA","1","0","NA","1","NA","1","77","0","0","0","0","77","77","0","0","77","77","77","77","77","0","0","0","0","0","0","77","77","77","77","77","77","77","77","77","77","0","77","0","NA","1","NA","0","12/30/15 09:49:53","Default description","no","chinese-japanese-korean","no","18","white","開始實驗A","768","legacy","F:/TCU/Lecture/Experimental_Psychology/2015Fall/Compatibility/3_data_collection/RAW/A-0.csv","xpyriment","Interactive Ising","3.0.4","no","0","Z","space","space","space","space","space","space","space","Z","space","1154","7891","11482","588","788","532","320723","908","1154","1161","legacy","1500","experiment","1","odd","740197","748091","NA","NA","537532","NA","NA","NA","NA","728710","826500","748088","NA","331699","NA","828426","826879","331699","NA","829426","824062","829429","806302","788517","9056","9648","10440","10976","8144","4043","830929","824066","830932","806306","789020","830933","338612","832091","807603","832192","6980","826500","748091","NA","537532","NA","4042","Hommel2002EXP01","12","13791","14","yes","1024"
"y","yes","no","circle","86.6666666667","86.6666666667","975","975","black","no","xpyriment","legacy","green","blue","red","yellow","legacy","0","uniform","1","1","z","1","0","NA","NA","1","0","NA","1","NA","1","78","0","0","0","0","78","78","0","0","78","78","78","78","78","0","0","0","0","0","0","78","78","78","78","78","78","78","78","78","78","0","78","0","NA","1","NA","0","12/30/15 09:49:53","Default description","no","chinese-japanese-korean","no","18","white","開始實驗A","768","legacy","F:/TCU/Lecture/Experimental_Psychology/2015Fall/Compatibility/3_data_collection/RAW/A-0.csv","xpyriment","Interactive Ising","3.0.4","no","0","Z","space","space","space","space","space","space","space","Z","space","835","7891","11482","588","788","532","320723","908","835","1161","legacy","500","experiment","1","odd","740197","748091","NA","NA","537532","NA","NA","NA","NA","728710","833605","748088","NA","331699","NA","835626","834122","331699","NA","836626","836629","829429","806302","788517","9056","9648","10440","10976","8144","4043","837129","837132","830932","806306","789020","837132","338612","837971","807603","838071","6980","833605","748091","NA","537532","NA","4042","Hommel2002EXP01","13","14626","15","yes","1024"
"n","yes","no","rect","87.5","87.5","963","963","black","no","xpyriment","legacy","green","red","yellow","blue","legacy","0","uniform","1","1","/","1","0","NA","NA","1","0","NA","1","NA","1","79","0","0","0","0","79","79","0","0","79","79","79","79","79","0","0","0","0","0","0","79","79","79","79","79","79","79","79","79","79","0","79","0","NA","1","NA","0","12/30/15 09:49:53","Default description","no","chinese-japanese-korean","no","18","white","開始實驗A","768","legacy","F:/TCU/Lecture/Experimental_Psychology/2015Fall/Compatibility/3_data_collection/RAW/A-0.csv","xpyriment","Interactive Ising","3.0.4","no","0","/","space","space","space","space","space","space","space","/","space","784","7891","11482","588","788","532","320723","908","784","1161","legacy","0","experiment","1","odd","740197","748091","NA","NA","537532","NA","NA","NA","NA","728710","839645","748088","NA","331699","NA","841367","839830","331699","NA","842367","836629","829429","806302","842370","9056","9648","10440","10976","8144","4043","842370","837132","830932","806306","842375","842375","338612","843163","807603","843263","6980","839645","748091","NA","537532","NA","4042","Hommel2002EXP01","14","15410","16","yes","1024"
