"Compatibility","EXPA","EXPB","Shape","acc","accuracy","average_response_time","avg_rt","background","bidi","canvas_backend","clock_backend","color1","color2","color3","color4","color_backend","compensation","coordinates","correct","correct_Target_response","correct_response","count_Block_Break","count_Block_EXPERIMENT_A","count_Block_EXPERIMENT_B","count_Block_Parctice_B","count_Block_Practice_A","count_Block_reset_EXPERIMENT_A","count_Block_reset_EXPERIMENT_B","count_Block_reset_Practice_A","count_Block_reset_Practice_B","count_Break","count_Decide_Color","count_EXPERIMENT_A","count_EXPERIMENT_B","count_EXP_A","count_EXP_B","count_Initial","count_Intertrial","count_Practice_A","count_Practice_B","count_Prepare","count_Prepare_circle_compatible","count_Prepare_circle_incompatible","count_Prepare_rect_compatible","count_Prepare_rect_incompatible","count_Procedure_Ins01","count_Procedure_Ins02","count_Procedure_Ins03","count_Ready","count_Response_Ins","count_Select_Experiment","count_Target","count_Target_circle_compatible","count_Target_circle_incompatible","count_Target_rect_compatible","count_Target_rect_incompatible","count_Target_response","count_Target_response_BadResponse","count_Target_response_Correct","count_Target_response_Wrong","count_Target_response_logger","count_Title","count_Trial","count_Trial_EXPERIMENT_A","count_Trial_EXPERIMENT_B","count_Trial_Practice_A","count_Trial_Practice_B","count_experiment","datetime","description","font_bold","font_family","font_italic","font_size","foreground","form_response","height","keyboard_backend","logfile","mouse_backend","opensesame_codename","opensesame_version","practice","repeat_cycle","response","response_Block_Break","response_Break","response_Procedure_Ins01","response_Procedure_Ins02","response_Procedure_Ins03","response_Ready","response_Response_Ins","response_Target_response","response_Title","response_time","response_time_Block_Break","response_time_Break","response_time_Procedure_Ins01","response_time_Procedure_Ins02","response_time_Procedure_Ins03","response_time_Ready","response_time_Response_Ins","response_time_Target_response","response_time_Title","sampler_backend","soa","start","subject_nr","subject_parity","time_Block_Break","time_Block_EXPERIMENT_A","time_Block_EXPERIMENT_B","time_Block_Parctice_B","time_Block_Practice_A","time_Block_reset_EXPERIMENT_A","time_Block_reset_EXPERIMENT_B","time_Block_reset_Practice_A","time_Block_reset_Practice_B","time_Break","time_Decide_Color","time_EXPERIMENT_A","time_EXPERIMENT_B","time_EXP_A","time_EXP_B","time_Initial","time_Intertrial","time_Practice_A","time_Practice_B","time_Prepare","time_Prepare_circle_compatible","time_Prepare_circle_incompatible","time_Prepare_rect_compatible","time_Prepare_rect_incompatible","time_Procedure_Ins01","time_Procedure_Ins02","time_Procedure_Ins03","time_Ready","time_Response_Ins","time_Select_Experiment","time_Target","time_Target_circle_compatible","time_Target_circle_incompatible","time_Target_rect_compatible","time_Target_rect_incompatible","time_Target_response","time_Target_response_BadResponse","time_Target_response_Correct","time_Target_response_Wrong","time_Target_response_logger","time_Title","time_Trial","time_Trial_EXPERIMENT_A","time_Trial_EXPERIMENT_B","time_Trial_Practice_A","time_Trial_Practice_B","time_experiment","title","total_correct","total_response_time","total_responses","uniform_coordinates","width"
"n","yes","no","circle","100","100","1334","1334","black","no","xpyriment","legacy","yellow","green","blue","red","legacy","0","uniform","1","1","z","1","NA","NA","NA","0","NA","NA","0","NA","NA","0","0","0","0","0","0","0","0","0","0","0","0","0","0","0","0","0","0","0","0","0","0","0","0","0","0","0","0","0","0","0","0","NA","NA","0","NA","0","01/01/16 11:46:17","Default description","no","chinese-japanese-korean","no","18","white","開始實驗A","768","legacy","C:/Users/Evonne/Desktop/test/Compatibility/3_Data Collection/RAW/A-1.csv","xpyriment","Interactive Ising","3.0.2","yes","0","z","NA","NA","space","space","/","space","space","z","space","1334","NA","NA","4112","8635","2222","21644","8606","1334","1775","legacy","500","experiment","1","odd","NA","NA","NA","NA","81505","NA","NA","NA","NA","NA","85808","NA","NA","81494","NA","87517","85973","81494","NA","88517","NA","88520","NA","NA","44853","48982","57622","59849","36243","6021","89020","NA","89023","NA","NA","89024","NA","90363","NA","90463","34423","85807","NA","NA","81505","NA","5929","Hommel2002EXP01","1","1334","1","yes","1024"
"n","yes","no","rect","100","100","1077","1077","black","no","xpyriment","legacy","red","blue","yellow","green","legacy","0","uniform","1","1","/","1","NA","NA","NA","0","NA","NA","0","NA","NA","1","0","0","0","0","1","1","0","0","1","1","1","1","1","0","0","0","0","0","0","1","1","1","1","1","1","1","1","1","1","0","1","NA","NA","0","NA","0","01/01/16 11:46:17","Default description","no","chinese-japanese-korean","no","18","white","開始實驗A","768","legacy","C:/Users/Evonne/Desktop/test/Compatibility/3_Data Collection/RAW/A-1.csv","xpyriment","Interactive Ising","3.0.2","yes","0","/","NA","NA","space","space","/","space","space","/","space","820","NA","NA","4112","8635","2222","21644","8606","820","1775","legacy","1000","experiment","1","odd","NA","NA","NA","NA","81505","NA","NA","NA","NA","NA","94484","NA","NA","81494","NA","96310","94769","81494","NA","97310","NA","88520","NA","97313","44853","48982","57622","59849","36243","6021","98313","NA","89023","NA","98316","98316","NA","99141","NA","99241","34423","94484","NA","NA","81505","NA","5929","Hommel2002EXP01","2","2154","2","yes","1024"
"n","yes","no","circle","100","100","1081","1081","black","no","xpyriment","legacy","blue","yellow","green","red","legacy","0","uniform","1","1","z","1","NA","NA","NA","0","NA","NA","0","NA","NA","2","0","0","0","0","2","2","0","0","2","2","2","2","2","0","0","0","0","0","0","2","2","2","2","2","2","2","2","2","2","0","2","NA","NA","0","NA","0","01/01/16 11:46:17","Default description","no","chinese-japanese-korean","no","18","white","開始實驗A","768","legacy","C:/Users/Evonne/Desktop/test/Compatibility/3_Data Collection/RAW/A-1.csv","xpyriment","Interactive Ising","3.0.2","yes","0","z","NA","NA","space","space","/","space","space","z","space","1091","NA","NA","4112","8635","2222","21644","8606","1091","1775","legacy","1500","experiment","1","odd","NA","NA","NA","NA","81505","NA","NA","NA","NA","NA","103089","NA","NA","81494","NA","104914","103367","81494","NA","105915","NA","105918","NA","97313","44853","48982","57622","59849","36243","6021","107418","NA","107421","NA","98316","107422","NA","108518","NA","108618","34423","103088","NA","NA","81505","NA","5929","Hommel2002EXP01","3","3245","3","yes","1024"
"y","yes","no","circle","100","100","1015","1015","black","no","xpyriment","legacy","red","yellow","green","blue","legacy","0","uniform","1","1","z","1","NA","NA","NA","0","NA","NA","0","NA","NA","3","0","0","0","0","3","3","0","0","3","3","3","3","3","0","0","0","0","0","0","3","3","3","3","3","3","3","3","3","3","0","3","NA","NA","0","NA","0","01/01/16 11:46:17","Default description","no","chinese-japanese-korean","no","18","white","開始實驗A","768","legacy","C:/Users/Evonne/Desktop/test/Compatibility/3_Data Collection/RAW/A-1.csv","xpyriment","Interactive Ising","3.0.2","yes","0","z","NA","NA","space","space","/","space","space","z","space","818","NA","NA","4112","8635","2222","21644","8606","818","1775","legacy","1000","experiment","1","odd","NA","NA","NA","NA","81505","NA","NA","NA","NA","NA","112552","NA","NA","81494","NA","114352","112850","81494","NA","115353","115356","105918","NA","97313","44853","48982","57622","59849","36243","6021","116356","116359","107421","NA","98316","116360","NA","117183","NA","117283","34423","112552","NA","NA","81505","NA","5929","Hommel2002EXP01","4","4063","4","yes","1024"
"n","yes","no","rect","100","100","966","966","black","no","xpyriment","legacy","blue","yellow","red","green","legacy","0","uniform","1","1","/","1","NA","NA","NA","0","NA","NA","0","NA","NA","4","0","0","0","0","4","4","0","0","4","4","4","4","4","0","0","0","0","0","0","4","4","4","4","4","4","4","4","4","4","0","4","NA","NA","0","NA","0","01/01/16 11:46:17","Default description","no","chinese-japanese-korean","no","18","white","開始實驗A","768","legacy","C:/Users/Evonne/Desktop/test/Compatibility/3_Data Collection/RAW/A-1.csv","xpyriment","Interactive Ising","3.0.2","yes","0","/","NA","NA","space","space","/","space","space","/","space","769","NA","NA","4112","8635","2222","21644","8606","769","1775","legacy","1500","experiment","1","odd","NA","NA","NA","NA","81505","NA","NA","NA","NA","NA","121430","NA","NA","81494","NA","123119","121569","81494","NA","124120","115356","105918","NA","124123","44853","48982","57622","59849","36243","6021","125623","116359","107421","NA","125626","125627","NA","126400","NA","126501","34423","121430","NA","NA","81505","NA","5929","Hommel2002EXP01","5","4832","5","yes","1024"
"n","yes","no","rect","100","100","952","952","black","no","xpyriment","legacy","blue","red","yellow","green","legacy","0","uniform","1","1","/","1","NA","NA","NA","0","NA","NA","0","NA","NA","5","0","0","0","0","5","5","0","0","5","5","5","5","5","0","0","0","0","0","0","5","5","5","5","5","5","5","5","5","5","0","5","NA","NA","0","NA","0","01/01/16 11:46:17","Default description","no","chinese-japanese-korean","no","18","white","開始實驗A","768","legacy","C:/Users/Evonne/Desktop/test/Compatibility/3_Data Collection/RAW/A-1.csv","xpyriment","Interactive Ising","3.0.2","yes","0","/","NA","NA","space","space","/","space","space","/","space","882","NA","NA","4112","8635","2222","21644","8606","882","1775","legacy","500","experiment","1","odd","NA","NA","NA","NA","81505","NA","NA","NA","NA","NA","130408","NA","NA","81494","NA","132225","130682","81494","NA","133226","115356","105918","NA","133229","44853","48982","57622","59849","36243","6021","133729","116359","107421","NA","133732","133732","NA","134619","NA","134720","34423","130408","NA","NA","81505","NA","5929","Hommel2002EXP01","6","5714","6","yes","1024"
"y","yes","no","rect","100","100","937","937","black","no","xpyriment","legacy","red","blue","green","yellow","legacy","0","uniform","1","1","/","1","NA","NA","NA","0","NA","NA","0","NA","NA","6","0","0","0","0","6","6","0","0","6","6","6","6","6","0","0","0","0","0","0","6","6","6","6","6","6","6","6","6","6","0","6","NA","NA","0","NA","0","01/01/16 11:46:17","Default description","no","chinese-japanese-korean","no","18","white","開始實驗A","768","legacy","C:/Users/Evonne/Desktop/test/Compatibility/3_Data Collection/RAW/A-1.csv","xpyriment","Interactive Ising","3.0.2","yes","0","/","NA","NA","space","space","/","space","space","/","space","850","NA","NA","4112","8635","2222","21644","8606","850","1775","legacy","500","experiment","1","odd","NA","NA","NA","NA","81505","NA","NA","NA","NA","NA","138839","NA","NA","81494","NA","140584","139038","81494","NA","141584","115356","105918","141587","133229","44853","48982","57622","59849","36243","6021","142087","116359","107421","142090","133732","142090","NA","142945","NA","143045","34423","138838","NA","NA","81505","NA","5929","Hommel2002EXP01","7","6564","7","yes","1024"
"y","yes","no","circle","100","100","936","936","black","no","xpyriment","legacy","red","green","yellow","blue","legacy","0","uniform","1","1","z","1","NA","NA","NA","0","NA","NA","0","NA","NA","7","0","0","0","0","7","7","0","0","7","7","7","7","7","0","0","0","0","0","0","7","7","7","7","7","7","7","7","7","7","0","7","NA","NA","0","NA","0","01/01/16 11:46:17","Default description","no","chinese-japanese-korean","no","18","white","開始實驗A","768","legacy","C:/Users/Evonne/Desktop/test/Compatibility/3_Data Collection/RAW/A-1.csv","xpyriment","Interactive Ising","3.0.2","yes","0","z","NA","NA","space","space","/","space","space","z","space","926","NA","NA","4112","8635","2222","21644","8606","926","1775","legacy","1500","experiment","1","odd","NA","NA","NA","NA","81505","NA","NA","NA","NA","NA","147421","NA","NA","81494","NA","149120","147570","81494","NA","150120","150123","105918","141587","133229","44853","48982","57622","59849","36243","6021","151623","151627","107421","142090","133732","151627","NA","152558","NA","152658","34423","147421","NA","NA","81505","NA","5929","Hommel2002EXP01","8","7490","8","yes","1024"
"y","yes","no","rect","88.8888888889","88.8888888889","1015","1015","black","no","xpyriment","legacy","blue","red","yellow","green","legacy","0","uniform","0","0","/","1","NA","NA","NA","0","NA","NA","0","NA","NA","8","0","0","0","0","8","8","0","0","8","8","8","8","8","0","0","0","0","0","0","8","8","8","8","8","8","8","8","8","8","0","8","NA","NA","0","NA","0","01/01/16 11:46:17","Default description","no","chinese-japanese-korean","no","18","white","開始實驗A","768","legacy","C:/Users/Evonne/Desktop/test/Compatibility/3_Data Collection/RAW/A-1.csv","xpyriment","Interactive Ising","3.0.2","yes","0","z","NA","NA","space","space","/","space","space","z","space","1646","NA","NA","4112","8635","2222","21644","8606","1646","1775","legacy","0","experiment","1","odd","NA","NA","NA","NA","81505","NA","NA","NA","NA","NA","156867","NA","NA","81494","NA","158595","157048","81494","NA","159596","150123","105918","159600","133229","44853","48982","57622","59849","36243","6021","159601","151627","107421","159604","133732","159604","NA","152558","161255","161355","34423","156866","NA","NA","81505","NA","5929","Hommel2002EXP01","8","9136","9","yes","1024"
"n","yes","no","rect","90","90","989","989","black","no","xpyriment","legacy","red","blue","yellow","green","legacy","0","uniform","1","1","/","1","NA","NA","NA","0","NA","NA","0","NA","NA","9","0","0","0","0","9","9","0","0","9","9","9","9","9","0","0","0","0","0","0","9","9","9","9","9","9","9","9","9","9","0","9","NA","NA","0","NA","0","01/01/16 11:46:17","Default description","no","chinese-japanese-korean","no","18","white","開始實驗A","768","legacy","C:/Users/Evonne/Desktop/test/Compatibility/3_Data Collection/RAW/A-1.csv","xpyriment","Interactive Ising","3.0.2","yes","0","/","NA","NA","space","space","/","space","space","/","space","759","NA","NA","4112","8635","2222","21644","8606","759","1775","legacy","500","experiment","1","odd","NA","NA","NA","NA","81505","NA","NA","NA","NA","NA","165458","NA","NA","81494","NA","167253","165706","81494","NA","168254","150123","105918","159600","168257","44853","48982","57622","59849","36243","6021","168757","151627","107421","159604","168760","168761","NA","169526","161255","169626","34423","165457","NA","NA","81505","NA","5929","Hommel2002EXP01","9","9895","10","yes","1024"
"n","yes","no","circle","90.9090909091","90.9090909091","947","947","black","no","xpyriment","legacy","blue","yellow","red","green","legacy","0","uniform","1","1","z","1","NA","NA","NA","0","NA","NA","0","NA","NA","10","0","0","0","0","10","10","0","0","10","10","10","10","10","0","0","0","0","0","0","10","10","10","10","10","10","10","10","10","10","0","10","NA","NA","0","NA","0","01/01/16 11:46:17","Default description","no","chinese-japanese-korean","no","18","white","開始實驗A","768","legacy","C:/Users/Evonne/Desktop/test/Compatibility/3_Data Collection/RAW/A-1.csv","xpyriment","Interactive Ising","3.0.2","yes","0","z","NA","NA","space","space","/","space","space","z","space","529","NA","NA","4112","8635","2222","21644","8606","529","1775","legacy","1500","experiment","1","odd","NA","NA","NA","NA","81505","NA","NA","NA","NA","NA","173635","NA","NA","81494","NA","175582","174080","81494","NA","176583","150123","176586","159600","168257","44853","48982","57622","59849","36243","6021","178086","151627","178089","159604","168760","178090","NA","178625","161255","178725","34423","173635","NA","NA","81505","NA","5929","Hommel2002EXP01","10","10424","11","yes","1024"
"n","yes","no","circle","91.6666666667","91.6666666667","942","942","black","no","xpyriment","legacy","red","yellow","green","blue","legacy","0","uniform","1","1","z","1","NA","NA","NA","0","NA","NA","0","NA","NA","11","0","0","0","0","11","11","0","0","11","11","11","11","11","0","0","0","0","0","0","11","11","11","11","11","11","11","11","11","11","0","11","NA","NA","0","NA","0","01/01/16 11:46:17","Default description","no","chinese-japanese-korean","no","18","white","開始實驗A","768","legacy","C:/Users/Evonne/Desktop/test/Compatibility/3_Data Collection/RAW/A-1.csv","xpyriment","Interactive Ising","3.0.2","yes","0","z","NA","NA","space","space","/","space","space","z","space","886","NA","NA","4112","8635","2222","21644","8606","886","1775","legacy","1000","experiment","1","odd","NA","NA","NA","NA","81505","NA","NA","NA","NA","NA","182480","NA","NA","81494","NA","184160","182612","81494","NA","185161","150123","185164","159600","168257","44853","48982","57622","59849","36243","6021","186164","151627","186167","159604","168760","186168","NA","187059","161255","187160","34423","182479","NA","NA","81505","NA","5929","Hommel2002EXP01","11","11310","12","yes","1024"
"y","yes","no","circle","92.3076923077","92.3076923077","941","941","black","no","xpyriment","legacy","green","red","yellow","blue","legacy","0","uniform","1","1","z","1","NA","NA","NA","0","NA","NA","0","NA","NA","12","0","0","0","0","12","12","0","0","12","12","12","12","12","0","0","0","0","0","0","12","12","12","12","12","12","12","12","12","12","0","12","NA","NA","0","NA","0","01/01/16 11:46:17","Default description","no","chinese-japanese-korean","no","18","white","開始實驗A","768","legacy","C:/Users/Evonne/Desktop/test/Compatibility/3_Data Collection/RAW/A-1.csv","xpyriment","Interactive Ising","3.0.2","yes","0","z","NA","NA","space","space","/","space","space","z","space","923","NA","NA","4112","8635","2222","21644","8606","923","1775","legacy","500","experiment","1","odd","NA","NA","NA","NA","81505","NA","NA","NA","NA","NA","191335","NA","NA","81494","NA","193068","191522","81494","NA","194068","194072","185164","159600","168257","44853","48982","57622","59849","36243","6021","194572","194575","186167","159604","168760","194576","NA","195504","161255","195605","34423","191335","NA","NA","81505","NA","5929","Hommel2002EXP01","12","12233","13","yes","1024"
"y","yes","no","rect","92.8571428571","92.8571428571","930","930","black","no","xpyriment","legacy","blue","yellow","green","red","legacy","0","uniform","1","1","/","1","NA","NA","NA","0","NA","NA","0","NA","NA","13","0","0","0","0","13","13","0","0","13","13","13","13","13","0","0","0","0","0","0","13","13","13","13","13","13","13","13","13","13","0","13","NA","NA","0","NA","0","01/01/16 11:46:17","Default description","no","chinese-japanese-korean","no","18","white","開始實驗A","768","legacy","C:/Users/Evonne/Desktop/test/Compatibility/3_Data Collection/RAW/A-1.csv","xpyriment","Interactive Ising","3.0.2","yes","0","/","NA","NA","space","space","/","space","space","/","space","788","NA","NA","4112","8635","2222","21644","8606","788","1775","legacy","1000","experiment","1","odd","NA","NA","NA","NA","81505","NA","NA","NA","NA","NA","199893","NA","NA","81494","NA","201618","200068","81494","NA","202619","194072","185164","202622","168257","44853","48982","57622","59849","36243","6021","203623","194575","186167","203626","168760","203626","NA","204419","161255","204520","34423","199892","NA","NA","81505","NA","5929","Hommel2002EXP01","13","13021","14","yes","1024"
"y","yes","no","circle","93.3333333333","93.3333333333","917","917","black","no","xpyriment","legacy","blue","green","red","yellow","legacy","0","uniform","1","1","z","1","NA","NA","NA","0","NA","NA","0","NA","NA","14","0","0","0","0","14","14","0","0","14","14","14","14","14","0","0","0","0","0","0","14","14","14","14","14","14","14","14","14","14","0","14","NA","NA","0","NA","0","01/01/16 11:46:17","Default description","no","chinese-japanese-korean","no","18","white","開始實驗A","768","legacy","C:/Users/Evonne/Desktop/test/Compatibility/3_Data Collection/RAW/A-1.csv","xpyriment","Interactive Ising","3.0.2","yes","0","z","NA","NA","space","space","/","space","space","z","space","748","NA","NA","4112","8635","2222","21644","8606","748","1775","legacy","1500","experiment","1","odd","NA","NA","NA","NA","81505","NA","NA","NA","NA","NA","208770","NA","NA","81494","NA","210507","208960","81494","NA","211508","211511","185164","202622","168257","44853","48982","57622","59849","36243","6021","213011","213014","186167","203626","168760","213015","NA","213768","161255","213869","34423","208769","NA","NA","81505","NA","5929","Hommel2002EXP01","14","13769","15","yes","1024"
"y","yes","no","rect","93.75","93.75","911","911","black","no","xpyriment","legacy","blue","red","green","yellow","legacy","0","uniform","1","1","/","1","NA","NA","NA","0","NA","NA","0","NA","NA","15","0","0","0","0","15","15","0","0","15","15","15","15","15","0","0","0","0","0","0","15","15","15","15","15","15","15","15","15","15","0","15","NA","NA","0","NA","0","01/01/16 11:46:17","Default description","no","chinese-japanese-korean","no","18","white","開始實驗A","768","legacy","C:/Users/Evonne/Desktop/test/Compatibility/3_Data Collection/RAW/A-1.csv","xpyriment","Interactive Ising","3.0.2","yes","0","/","NA","NA","space","space","/","space","space","/","space","817","NA","NA","4112","8635","2222","21644","8606","817","1775","legacy","1500","experiment","1","odd","NA","NA","NA","NA","81505","NA","NA","NA","NA","NA","218157","NA","NA","81494","NA","219969","218418","81494","NA","220970","211511","185164","220974","168257","44853","48982","57622","59849","36243","6021","222474","213014","186167","222477","168760","222477","NA","223299","161255","223400","34423","218156","NA","NA","81505","NA","5929","Hommel2002EXP01","15","14586","16","yes","1024"
"n","yes","no","circle","94.1176470588","94.1176470588","904","904","black","no","xpyriment","legacy","green","blue","yellow","red","legacy","0","uniform","1","1","z","1","NA","NA","NA","0","NA","NA","0","NA","NA","16","0","0","0","0","16","16","0","0","16","16","16","16","16","0","0","0","0","0","0","16","16","16","16","16","16","16","16","16","16","0","16","NA","NA","0","NA","0","01/01/16 11:46:17","Default description","no","chinese-japanese-korean","no","18","white","開始實驗A","768","legacy","C:/Users/Evonne/Desktop/test/Compatibility/3_Data Collection/RAW/A-1.csv","xpyriment","Interactive Ising","3.0.2","yes","0","z","NA","NA","space","space","/","space","space","z","space","794","NA","NA","4112","8635","2222","21644","8606","794","1775","legacy","1000","experiment","1","odd","NA","NA","NA","NA","81505","NA","NA","NA","NA","NA","227466","NA","NA","81494","NA","229405","227902","81494","NA","230406","211511","230409","220974","168257","44853","48982","57622","59849","36243","6021","231409","213014","231412","222477","168760","231413","NA","232213","161255","232313","34423","227466","NA","NA","81505","NA","5929","Hommel2002EXP01","16","15380","17","yes","1024"
"y","yes","no","circle","94.4444444444","94.4444444444","926","926","black","no","xpyriment","legacy","green","red","blue","yellow","legacy","0","uniform","1","1","z","1","NA","NA","NA","0","NA","NA","0","NA","NA","17","0","0","0","0","17","17","0","0","17","17","17","17","17","0","0","0","0","0","0","17","17","17","17","17","17","17","17","17","17","0","17","NA","NA","0","NA","0","01/01/16 11:46:17","Default description","no","chinese-japanese-korean","no","18","white","開始實驗A","768","legacy","C:/Users/Evonne/Desktop/test/Compatibility/3_Data Collection/RAW/A-1.csv","xpyriment","Interactive Ising","3.0.2","yes","0","z","NA","NA","space","space","/","space","space","z","space","1289","NA","NA","4112","8635","2222","21644","8606","1289","1775","legacy","0","experiment","1","odd","NA","NA","NA","NA","81505","NA","NA","NA","NA","NA","235872","NA","NA","81494","NA","237571","236024","81494","NA","238572","238575","230409","220974","168257","44853","48982","57622","59849","36243","6021","238576","238579","231412","222477","168760","238580","NA","239874","161255","239974","34423","235871","NA","NA","81505","NA","5929","Hommel2002EXP01","17","16669","18","yes","1024"
"y","yes","no","circle","94.7368421053","94.7368421053","931","931","black","no","xpyriment","legacy","red","green","blue","yellow","legacy","0","uniform","1","1","z","1","NA","NA","NA","0","NA","NA","0","NA","NA","18","0","0","0","0","18","18","0","0","18","18","18","18","18","0","0","0","0","0","0","18","18","18","18","18","18","18","18","18","18","0","18","NA","NA","0","NA","0","01/01/16 11:46:17","Default description","no","chinese-japanese-korean","no","18","white","開始實驗A","768","legacy","C:/Users/Evonne/Desktop/test/Compatibility/3_Data Collection/RAW/A-1.csv","xpyriment","Interactive Ising","3.0.2","yes","0","z","NA","NA","space","space","/","space","space","z","space","1033","NA","NA","4112","8635","2222","21644","8606","1033","1775","legacy","0","experiment","1","odd","NA","NA","NA","NA","81505","NA","NA","NA","NA","NA","243873","NA","NA","81494","NA","245624","244075","81494","NA","246624","246627","230409","220974","168257","44853","48982","57622","59849","36243","6021","246628","246631","231412","222477","168760","246631","NA","247669","161255","247769","34423","243872","NA","NA","81505","NA","5929","Hommel2002EXP01","18","17702","19","yes","1024"
"n","yes","no","circle","95","95","938","938","black","no","xpyriment","legacy","yellow","red","blue","green","legacy","0","uniform","1","1","z","1","NA","NA","NA","0","NA","NA","0","NA","NA","19","0","0","0","0","19","19","0","0","19","19","19","19","19","0","0","0","0","0","0","19","19","19","19","19","19","19","19","19","19","0","19","NA","NA","0","NA","0","01/01/16 11:46:17","Default description","no","chinese-japanese-korean","no","18","white","開始實驗A","768","legacy","C:/Users/Evonne/Desktop/test/Compatibility/3_Data Collection/RAW/A-1.csv","xpyriment","Interactive Ising","3.0.2","yes","0","z","NA","NA","space","space","/","space","space","z","space","1069","NA","NA","4112","8635","2222","21644","8606","1069","1775","legacy","0","experiment","1","odd","NA","NA","NA","NA","81505","NA","NA","NA","NA","NA","251909","NA","NA","81494","NA","253610","252062","81494","NA","254610","246627","254613","220974","168257","44853","48982","57622","59849","36243","6021","254614","246631","254616","222477","168760","254617","NA","255691","161255","255792","34423","251909","NA","NA","81505","NA","5929","Hommel2002EXP01","19","18771","20","yes","1024"
"y","yes","no","rect","90.4761904762","90.4761904762","931","931","black","no","xpyriment","legacy","yellow","blue","green","red","legacy","0","uniform","0","0","/","1","NA","NA","NA","0","NA","NA","0","NA","NA","20","0","0","0","0","20","20","0","0","20","20","20","20","20","0","0","0","0","0","0","20","20","20","20","20","20","20","20","20","20","0","20","NA","NA","0","NA","0","01/01/16 11:46:17","Default description","no","chinese-japanese-korean","no","18","white","開始實驗A","768","legacy","C:/Users/Evonne/Desktop/test/Compatibility/3_Data Collection/RAW/A-1.csv","xpyriment","Interactive Ising","3.0.2","yes","0","z","NA","NA","space","space","/","space","space","z","space","785","NA","NA","4112","8635","2222","21644","8606","785","1775","legacy","1000","experiment","1","odd","NA","NA","NA","NA","81505","NA","NA","NA","NA","NA","260107","NA","NA","81494","NA","261871","260326","81494","NA","262871","246627","254613","262874","168257","44853","48982","57622","59849","36243","6021","263874","246631","254616","263879","168760","263880","NA","255691","264672","264772","34423","260107","NA","NA","81505","NA","5929","Hommel2002EXP01","19","19556","21","yes","1024"
"y","yes","no","rect","90.9090909091","90.9090909091","934","934","black","no","xpyriment","legacy","red","green","yellow","blue","legacy","0","uniform","1","1","/","1","NA","NA","NA","0","NA","NA","0","NA","NA","21","0","0","0","0","21","21","0","0","21","21","21","21","21","0","0","0","0","0","0","21","21","21","21","21","21","21","21","21","21","0","21","NA","NA","0","NA","0","01/01/16 11:46:17","Default description","no","chinese-japanese-korean","no","18","white","開始實驗A","768","legacy","C:/Users/Evonne/Desktop/test/Compatibility/3_Data Collection/RAW/A-1.csv","xpyriment","Interactive Ising","3.0.2","yes","0","/","NA","NA","space","space","/","space","space","/","space","1001","NA","NA","4112","8635","2222","21644","8606","1001","1775","legacy","0","experiment","1","odd","NA","NA","NA","NA","81505","NA","NA","NA","NA","NA","268974","NA","NA","81494","NA","270736","269186","81494","NA","271737","246627","254613","271740","168257","44853","48982","57622","59849","36243","6021","271740","246631","254616","271743","168760","271744","NA","272750","264672","272850","34423","268973","NA","NA","81505","NA","5929","Hommel2002EXP01","20","20557","22","yes","1024"
"y","yes","no","rect","91.3043478261","91.3043478261","928","928","black","no","xpyriment","legacy","green","yellow","red","blue","legacy","0","uniform","1","1","/","1","NA","NA","NA","0","NA","NA","0","NA","NA","22","0","0","0","0","22","22","0","0","22","22","22","22","22","0","0","0","0","0","0","22","22","22","22","22","22","22","22","22","22","0","22","NA","NA","0","NA","0","01/01/16 11:46:17","Default description","no","chinese-japanese-korean","no","18","white","開始實驗A","768","legacy","C:/Users/Evonne/Desktop/test/Compatibility/3_Data Collection/RAW/A-1.csv","xpyriment","Interactive Ising","3.0.2","yes","0","/","NA","NA","space","space","/","space","space","/","space","807","NA","NA","4112","8635","2222","21644","8606","807","1775","legacy","1500","experiment","1","odd","NA","NA","NA","NA","81505","NA","NA","NA","NA","NA","277166","NA","NA","81494","NA","279104","277602","81494","NA","280105","246627","254613","280108","168257","44853","48982","57622","59849","36243","6021","281608","246631","254616","281611","168760","281611","NA","282423","264672","282523","34423","277165","NA","NA","81505","NA","5929","Hommel2002EXP01","21","21364","23","yes","1024"
"n","yes","no","rect","91.6666666667","91.6666666667","934","934","black","no","xpyriment","legacy","red","blue","green","yellow","legacy","0","uniform","1","1","/","1","NA","NA","NA","0","NA","NA","0","NA","NA","23","0","0","0","0","23","23","0","0","23","23","23","23","23","0","0","0","0","0","0","23","23","23","23","23","23","23","23","23","23","0","23","NA","NA","0","NA","0","01/01/16 11:46:17","Default description","no","chinese-japanese-korean","no","18","white","開始實驗A","768","legacy","C:/Users/Evonne/Desktop/test/Compatibility/3_Data Collection/RAW/A-1.csv","xpyriment","Interactive Ising","3.0.2","yes","0","/","NA","NA","space","space","/","space","space","/","space","1054","NA","NA","4112","8635","2222","21644","8606","1054","1775","legacy","0","experiment","1","odd","NA","NA","NA","NA","81505","NA","NA","NA","NA","NA","286583","NA","NA","81494","NA","288285","286746","81494","NA","289285","246627","254613","280108","289288","44853","48982","57622","59849","36243","6021","289289","246631","254616","281611","289292","289292","NA","290350","264672","290451","34423","286582","NA","NA","81505","NA","5929","Hommel2002EXP01","22","22418","24","yes","1024"
"n","yes","no","circle","92","92","934","934","black","no","xpyriment","legacy","red","blue","green","yellow","legacy","0","uniform","1","1","z","1","NA","NA","NA","0","NA","NA","0","NA","NA","24","0","0","0","0","24","24","0","0","24","24","24","24","24","0","0","0","0","0","0","24","24","24","24","24","24","24","24","24","24","0","24","NA","NA","0","NA","0","01/01/16 11:46:17","Default description","no","chinese-japanese-korean","no","18","white","開始實驗A","768","legacy","C:/Users/Evonne/Desktop/test/Compatibility/3_Data Collection/RAW/A-1.csv","xpyriment","Interactive Ising","3.0.2","yes","0","z","NA","NA","space","space","/","space","space","z","space","937","NA","NA","4112","8635","2222","21644","8606","937","1775","legacy","500","experiment","1","odd","NA","NA","NA","NA","81505","NA","NA","NA","NA","NA","294846","NA","NA","81494","NA","296680","295128","81494","NA","297680","246627","297683","280108","289288","44853","48982","57622","59849","36243","6021","298183","246631","298187","281611","289292","298188","NA","299130","264672","299230","34423","294846","NA","NA","81505","NA","5929","Hommel2002EXP01","23","23355","25","yes","1024"
"n","yes","no","rect","92.3076923077","92.3076923077","926","926","black","no","xpyriment","legacy","blue","red","yellow","green","legacy","0","uniform","1","1","/","1","NA","NA","NA","0","NA","NA","0","NA","NA","25","0","0","0","0","25","25","0","0","25","25","25","25","25","0","0","0","0","0","0","25","25","25","25","25","25","25","25","25","25","0","25","NA","NA","0","NA","0","01/01/16 11:46:17","Default description","no","chinese-japanese-korean","no","18","white","開始實驗A","768","legacy","C:/Users/Evonne/Desktop/test/Compatibility/3_Data Collection/RAW/A-1.csv","xpyriment","Interactive Ising","3.0.2","yes","0","/","NA","NA","space","space","/","space","space","/","space","723","NA","NA","4112","8635","2222","21644","8606","723","1775","legacy","1000","experiment","1","odd","NA","NA","NA","NA","81505","NA","NA","NA","NA","NA","303671","NA","NA","81494","NA","305400","303854","81494","NA","306400","246627","297683","280108","306403","44853","48982","57622","59849","36243","6021","307403","246631","298187","281611","307406","307407","NA","308136","264672","308237","34423","303671","NA","NA","81505","NA","5929","Hommel2002EXP01","24","24078","26","yes","1024"
"y","yes","no","circle","92.5925925926","92.5925925926","935","935","black","no","xpyriment","legacy","yellow","blue","red","green","legacy","0","uniform","1","1","z","1","NA","NA","NA","0","NA","NA","0","NA","NA","26","0","0","0","0","26","26","0","0","26","26","26","26","26","0","0","0","0","0","0","26","26","26","26","26","26","26","26","26","26","0","26","NA","NA","0","NA","0","01/01/16 11:46:17","Default description","no","chinese-japanese-korean","no","18","white","開始實驗A","768","legacy","C:/Users/Evonne/Desktop/test/Compatibility/3_Data Collection/RAW/A-1.csv","xpyriment","Interactive Ising","3.0.2","yes","0","z","NA","NA","space","space","/","space","space","z","space","1174","NA","NA","4112","8635","2222","21644","8606","1174","1775","legacy","1000","experiment","1","odd","NA","NA","NA","NA","81505","NA","NA","NA","NA","NA","312740","NA","NA","81494","NA","314475","312931","81494","NA","315476","315479","297683","280108","306403","44853","48982","57622","59849","36243","6021","316480","316483","298187","281611","307406","316484","NA","317664","264672","317764","34423","312739","NA","NA","81505","NA","5929","Hommel2002EXP01","25","25252","27","yes","1024"
"n","yes","no","rect","92.8571428571","92.8571428571","933","933","black","no","xpyriment","legacy","green","blue","red","yellow","legacy","0","uniform","1","1","/","1","NA","NA","NA","0","NA","NA","0","NA","NA","27","0","0","0","0","27","27","0","0","27","27","27","27","27","0","0","0","0","0","0","27","27","27","27","27","27","27","27","27","27","0","27","NA","NA","0","NA","0","01/01/16 11:46:17","Default description","no","chinese-japanese-korean","no","18","white","開始實驗A","768","legacy","C:/Users/Evonne/Desktop/test/Compatibility/3_Data Collection/RAW/A-1.csv","xpyriment","Interactive Ising","3.0.2","yes","0","/","NA","NA","space","space","/","space","space","/","space","892","NA","NA","4112","8635","2222","21644","8606","892","1775","legacy","0","experiment","1","odd","NA","NA","NA","NA","81505","NA","NA","NA","NA","NA","322422","NA","NA","81494","NA","324229","322682","81494","NA","325229","315479","297683","280108","325232","44853","48982","57622","59849","36243","6021","325233","316483","298187","281611","325237","325237","NA","326135","264672","326236","34423","322421","NA","NA","81505","NA","5929","Hommel2002EXP01","26","26144","28","yes","1024"
"y","yes","no","circle","93.1034482759","93.1034482759","928","928","black","no","xpyriment","legacy","green","yellow","blue","red","legacy","0","uniform","1","1","z","1","NA","NA","NA","0","NA","NA","0","NA","NA","28","0","0","0","0","28","28","0","0","28","28","28","28","28","0","0","0","0","0","0","28","28","28","28","28","28","28","28","28","28","0","28","NA","NA","0","NA","0","01/01/16 11:46:17","Default description","no","chinese-japanese-korean","no","18","white","開始實驗A","768","legacy","C:/Users/Evonne/Desktop/test/Compatibility/3_Data Collection/RAW/A-1.csv","xpyriment","Interactive Ising","3.0.2","yes","0","z","NA","NA","space","space","/","space","space","z","space","771","NA","NA","4112","8635","2222","21644","8606","771","1775","legacy","500","experiment","1","odd","NA","NA","NA","NA","81505","NA","NA","NA","NA","NA","330663","NA","NA","81494","NA","332485","330933","81494","NA","333486","333489","297683","280108","325232","44853","48982","57622","59849","36243","6021","333989","333993","298187","281611","325237","333994","NA","334770","264672","334870","34423","330663","NA","NA","81505","NA","5929","Hommel2002EXP01","27","26915","29","yes","1024"
"y","yes","no","rect","93.3333333333","93.3333333333","929","929","black","no","xpyriment","legacy","blue","red","yellow","green","legacy","0","uniform","1","1","/","1","NA","NA","NA","0","NA","NA","0","NA","NA","29","0","0","0","0","29","29","0","0","29","29","29","29","29","0","0","0","0","0","0","29","29","29","29","29","29","29","29","29","29","0","29","NA","NA","0","NA","0","01/01/16 11:46:17","Default description","no","chinese-japanese-korean","no","18","white","開始實驗A","768","legacy","C:/Users/Evonne/Desktop/test/Compatibility/3_Data Collection/RAW/A-1.csv","xpyriment","Interactive Ising","3.0.2","yes","0","/","NA","NA","space","space","/","space","space","/","space","974","NA","NA","4112","8635","2222","21644","8606","974","1775","legacy","500","experiment","1","odd","NA","NA","NA","NA","81505","NA","NA","NA","NA","NA","339549","NA","NA","81494","NA","341520","340001","81494","NA","342521","333489","297683","342525","325232","44853","48982","57622","59849","36243","6021","343025","333993","298187","343028","325237","343028","NA","344007","264672","344107","34423","339549","NA","NA","81505","NA","5929","Hommel2002EXP01","28","27889","30","yes","1024"
"n","yes","no","rect","90.3225806452","90.3225806452","927","927","black","no","xpyriment","legacy","yellow","blue","green","red","legacy","0","uniform","0","0","/","1","NA","NA","NA","0","NA","NA","0","NA","NA","30","0","0","0","0","30","30","0","0","30","30","30","30","30","0","0","0","0","0","0","30","30","30","30","30","30","30","30","30","30","0","30","NA","NA","0","NA","0","01/01/16 11:46:17","Default description","no","chinese-japanese-korean","no","18","white","開始實驗A","768","legacy","C:/Users/Evonne/Desktop/test/Compatibility/3_Data Collection/RAW/A-1.csv","xpyriment","Interactive Ising","3.0.2","yes","0","z","NA","NA","space","space","/","space","space","z","space","869","NA","NA","4112","8635","2222","21644","8606","869","1775","legacy","1500","experiment","1","odd","NA","NA","NA","NA","81505","NA","NA","NA","NA","NA","348530","NA","NA","81494","NA","350250","348698","81494","NA","351250","333489","297683","342525","351253","44853","48982","57622","59849","36243","6021","352753","333993","298187","343028","352756","352757","NA","344007","353631","353731","34423","348530","NA","NA","81505","NA","5929","Hommel2002EXP01","28","28758","31","yes","1024"
"n","yes","no","circle","90.625","90.625","932","932","black","no","xpyriment","legacy","blue","red","yellow","green","legacy","0","uniform","1","1","z","1","NA","NA","NA","0","NA","NA","0","NA","NA","31","0","0","0","0","31","31","0","0","31","31","31","31","31","0","0","0","0","0","0","31","31","31","31","31","31","31","31","31","31","0","31","NA","NA","0","NA","0","01/01/16 11:46:17","Default description","no","chinese-japanese-korean","no","18","white","開始實驗A","768","legacy","C:/Users/Evonne/Desktop/test/Compatibility/3_Data Collection/RAW/A-1.csv","xpyriment","Interactive Ising","3.0.2","yes","0","z","NA","NA","space","space","/","space","space","z","space","1087","NA","NA","4112","8635","2222","21644","8606","1087","1775","legacy","0","experiment","1","odd","NA","NA","NA","NA","81505","NA","NA","NA","NA","NA","358062","NA","NA","81494","NA","359821","358273","81494","NA","360821","333489","360824","342525","351253","44853","48982","57622","59849","36243","6021","360825","333993","360828","343028","352756","360829","NA","361921","353631","362022","34423","358062","NA","NA","81505","NA","5929","Hommel2002EXP01","29","29845","32","yes","1024"
"y","yes","no","rect","100","100","889","889","black","no","xpyriment","legacy","green","blue","yellow","red","legacy","0","uniform","1","1","/","1","NA","NA","NA","1","NA","NA","1","NA","0","32","0","0","0","0","32","32","0","0","32","32","32","32","32","0","0","0","0","0","0","32","32","32","32","32","32","32","32","32","32","0","32","NA","NA","1","NA","0","01/01/16 11:46:17","Default description","no","chinese-japanese-korean","no","18","white","開始實驗A","768","legacy","C:/Users/Evonne/Desktop/test/Compatibility/3_Data Collection/RAW/A-1.csv","xpyriment","Interactive Ising","3.0.2","yes","0","/","NA","space","space","space","/","space","space","/","space","889","NA","14519","4112","8635","2222","21644","8606","889","1775","legacy","1000","experiment","1","odd","NA","NA","NA","NA","377308","NA","NA","NA","NA","362781","381492","NA","NA","81494","NA","383235","381690","81494","NA","384235","333489","360824","384238","351253","44853","48982","57622","59849","36243","6021","385238","333993","360828","385241","352756","385242","NA","386136","353631","386236","34423","381491","NA","NA","377309","NA","5929","Hommel2002EXP01","1","889","1","yes","1024"
"y","yes","no","circle","100","100","1091","1091","black","no","xpyriment","legacy","yellow","green","red","blue","legacy","0","uniform","1","1","z","1","NA","NA","NA","1","NA","NA","1","NA","0","33","0","0","0","0","33","33","0","0","33","33","33","33","33","0","0","0","0","0","0","33","33","33","33","33","33","33","33","33","33","0","33","NA","NA","1","NA","0","01/01/16 11:46:17","Default description","no","chinese-japanese-korean","no","18","white","開始實驗A","768","legacy","C:/Users/Evonne/Desktop/test/Compatibility/3_Data Collection/RAW/A-1.csv","xpyriment","Interactive Ising","3.0.2","yes","0","z","NA","space","space","space","/","space","space","z","space","1293","NA","14519","4112","8635","2222","21644","8606","1293","1775","legacy","500","experiment","1","odd","NA","NA","NA","NA","377308","NA","NA","NA","NA","362781","390527","NA","NA","81494","NA","392308","390762","81494","NA","393308","393312","360824","384238","351253","44853","48982","57622","59849","36243","6021","393812","393816","360828","385241","352756","393816","NA","395116","353631","395217","34423","390526","NA","NA","377309","NA","5929","Hommel2002EXP01","2","2182","2","yes","1024"
"n","yes","no","circle","100","100","1022","1022","black","no","xpyriment","legacy","red","green","blue","yellow","legacy","0","uniform","1","1","z","1","NA","NA","NA","1","NA","NA","1","NA","0","34","0","0","0","0","34","34","0","0","34","34","34","34","34","0","0","0","0","0","0","34","34","34","34","34","34","34","34","34","34","0","34","NA","NA","1","NA","0","01/01/16 11:46:17","Default description","no","chinese-japanese-korean","no","18","white","開始實驗A","768","legacy","C:/Users/Evonne/Desktop/test/Compatibility/3_Data Collection/RAW/A-1.csv","xpyriment","Interactive Ising","3.0.2","yes","0","z","NA","space","space","space","/","space","space","z","space","885","NA","14519","4112","8635","2222","21644","8606","885","1775","legacy","500","experiment","1","odd","NA","NA","NA","NA","377308","NA","NA","NA","NA","362781","399228","NA","NA","81494","NA","400947","399401","81494","NA","401948","393312","401951","384238","351253","44853","48982","57622","59849","36243","6021","402451","393816","402454","385241","352756","402455","NA","403346","353631","403447","34423","399227","NA","NA","377309","NA","5929","Hommel2002EXP01","3","3067","3","yes","1024"
"y","yes","no","rect","100","100","1016","1016","black","no","xpyriment","legacy","blue","green","red","yellow","legacy","0","uniform","1","1","/","1","NA","NA","NA","1","NA","NA","1","NA","0","35","0","0","0","0","35","35","0","0","35","35","35","35","35","0","0","0","0","0","0","35","35","35","35","35","35","35","35","35","35","0","35","NA","NA","1","NA","0","01/01/16 11:46:17","Default description","no","chinese-japanese-korean","no","18","white","開始實驗A","768","legacy","C:/Users/Evonne/Desktop/test/Compatibility/3_Data Collection/RAW/A-1.csv","xpyriment","Interactive Ising","3.0.2","yes","0","/","NA","space","space","space","/","space","space","/","space","1000","NA","14519","4112","8635","2222","21644","8606","1000","1775","legacy","1500","experiment","1","odd","NA","NA","NA","NA","377308","NA","NA","NA","NA","362781","407799","NA","NA","81494","NA","409716","408214","81494","NA","410717","393312","401951","410720","351253","44853","48982","57622","59849","36243","6021","412220","393816","402454","412224","352756","412224","NA","413229","353631","413330","34423","407798","NA","NA","377309","NA","5929","Hommel2002EXP01","4","4067","4","yes","1024"
"n","yes","no","circle","100","100","1006","1006","black","no","xpyriment","legacy","yellow","green","red","blue","legacy","0","uniform","1","1","z","1","NA","NA","NA","1","NA","NA","1","NA","0","36","0","0","0","0","36","36","0","0","36","36","36","36","36","0","0","0","0","0","0","36","36","36","36","36","36","36","36","36","36","0","36","NA","NA","1","NA","0","01/01/16 11:46:17","Default description","no","chinese-japanese-korean","no","18","white","開始實驗A","768","legacy","C:/Users/Evonne/Desktop/test/Compatibility/3_Data Collection/RAW/A-1.csv","xpyriment","Interactive Ising","3.0.2","yes","0","z","NA","space","space","space","/","space","space","z","space","963","NA","14519","4112","8635","2222","21644","8606","963","1775","legacy","1000","experiment","1","odd","NA","NA","NA","NA","377308","NA","NA","NA","NA","362781","417305","NA","NA","81494","NA","418975","417435","81494","NA","419976","393312","419979","410720","351253","44853","48982","57622","59849","36243","6021","420979","393816","420982","412224","352756","420983","NA","421952","353631","422052","34423","417304","NA","NA","377309","NA","5929","Hommel2002EXP01","5","5030","5","yes","1024"
"n","yes","no","circle","100","100","954","954","black","no","xpyriment","legacy","green","yellow","blue","red","legacy","0","uniform","1","1","z","1","NA","NA","NA","1","NA","NA","1","NA","0","37","0","0","0","0","37","37","0","0","37","37","37","37","37","0","0","0","0","0","0","37","37","37","37","37","37","37","37","37","37","0","37","NA","NA","1","NA","0","01/01/16 11:46:17","Default description","no","chinese-japanese-korean","no","18","white","開始實驗A","768","legacy","C:/Users/Evonne/Desktop/test/Compatibility/3_Data Collection/RAW/A-1.csv","xpyriment","Interactive Ising","3.0.2","yes","0","z","NA","space","space","space","/","space","space","z","space","694","NA","14519","4112","8635","2222","21644","8606","694","1775","legacy","1000","experiment","1","odd","NA","NA","NA","NA","377308","NA","NA","NA","NA","362781","426109","NA","NA","81494","NA","427887","426339","81494","NA","428887","393312","428890","410720","351253","44853","48982","57622","59849","36243","6021","429890","393816","429893","412224","352756","429894","NA","430594","353631","430694","34423","426108","NA","NA","377309","NA","5929","Hommel2002EXP01","6","5724","6","yes","1024"
"y","yes","no","rect","100","100","927","927","black","no","xpyriment","legacy","green","blue","yellow","red","legacy","0","uniform","1","1","/","1","NA","NA","NA","1","NA","NA","1","NA","0","38","0","0","0","0","38","38","0","0","38","38","38","38","38","0","0","0","0","0","0","38","38","38","38","38","38","38","38","38","38","0","38","NA","NA","1","NA","0","01/01/16 11:46:17","Default description","no","chinese-japanese-korean","no","18","white","開始實驗A","768","legacy","C:/Users/Evonne/Desktop/test/Compatibility/3_Data Collection/RAW/A-1.csv","xpyriment","Interactive Ising","3.0.2","yes","0","/","NA","space","space","space","/","space","space","/","space","768","NA","14519","4112","8635","2222","21644","8606","768","1775","legacy","1500","experiment","1","odd","NA","NA","NA","NA","377308","NA","NA","NA","NA","362781","434985","NA","NA","81494","NA","436755","435206","81494","NA","437755","393312","428890","437758","351253","44853","48982","57622","59849","36243","6021","439258","393816","429893","439261","352756","439261","NA","440034","353631","440134","34423","434984","NA","NA","377309","NA","5929","Hommel2002EXP01","7","6492","7","yes","1024"
"n","yes","no","rect","100","100","903","903","black","no","xpyriment","legacy","blue","red","green","yellow","legacy","0","uniform","1","1","/","1","NA","NA","NA","1","NA","NA","1","NA","0","39","0","0","0","0","39","39","0","0","39","39","39","39","39","0","0","0","0","0","0","39","39","39","39","39","39","39","39","39","39","0","39","NA","NA","1","NA","0","01/01/16 11:46:17","Default description","no","chinese-japanese-korean","no","18","white","開始實驗A","768","legacy","C:/Users/Evonne/Desktop/test/Compatibility/3_Data Collection/RAW/A-1.csv","xpyriment","Interactive Ising","3.0.2","yes","0","/","NA","space","space","space","/","space","space","/","space","736","NA","14519","4112","8635","2222","21644","8606","736","1775","legacy","1500","experiment","1","odd","NA","NA","NA","NA","377308","NA","NA","NA","NA","362781","444167","NA","NA","81494","NA","445907","444360","81494","NA","446908","393312","428890","437758","446911","44853","48982","57622","59849","36243","6021","448411","393816","429893","439261","448414","448414","NA","449155","353631","449256","34423","444166","NA","NA","377309","NA","5929","Hommel2002EXP01","8","7228","8","yes","1024"
"n","yes","no","circle","100","100","975","975","black","no","xpyriment","legacy","yellow","red","blue","green","legacy","0","uniform","1","1","z","1","NA","NA","NA","1","NA","NA","1","NA","0","40","0","0","0","0","40","40","0","0","40","40","40","40","40","0","0","0","0","0","0","40","40","40","40","40","40","40","40","40","40","0","40","NA","NA","1","NA","0","01/01/16 11:46:17","Default description","no","chinese-japanese-korean","no","18","white","開始實驗A","768","legacy","C:/Users/Evonne/Desktop/test/Compatibility/3_Data Collection/RAW/A-1.csv","xpyriment","Interactive Ising","3.0.2","yes","0","z","NA","space","space","space","/","space","space","z","space","1550","NA","14519","4112","8635","2222","21644","8606","1550","1775","legacy","0","experiment","1","odd","NA","NA","NA","NA","377308","NA","NA","NA","NA","362781","453375","NA","NA","81494","NA","455073","453521","81494","NA","456073","393312","456076","437758","446911","44853","48982","57622","59849","36243","6021","456077","393816","456080","439261","448414","456081","NA","457637","353631","457738","34423","453374","NA","NA","377309","NA","5929","Hommel2002EXP01","9","8778","9","yes","1024"
"n","yes","no","rect","100","100","982","982","black","no","xpyriment","legacy","green","red","blue","yellow","legacy","0","uniform","1","1","/","1","NA","NA","NA","1","NA","NA","1","NA","0","41","0","0","0","0","41","41","0","0","41","41","41","41","41","0","0","0","0","0","0","41","41","41","41","41","41","41","41","41","41","0","41","NA","NA","1","NA","0","01/01/16 11:46:17","Default description","no","chinese-japanese-korean","no","18","white","開始實驗A","768","legacy","C:/Users/Evonne/Desktop/test/Compatibility/3_Data Collection/RAW/A-1.csv","xpyriment","Interactive Ising","3.0.2","yes","0","/","NA","space","space","space","/","space","space","/","space","1042","NA","14519","4112","8635","2222","21644","8606","1042","1775","legacy","0","experiment","1","odd","NA","NA","NA","NA","377308","NA","NA","NA","NA","362781","461887","NA","NA","81494","NA","463631","462083","81494","NA","464632","393312","456076","437758","464635","44853","48982","57622","59849","36243","6021","464636","393816","456080","439261","464639","464639","NA","465686","353631","465786","34423","461887","NA","NA","377309","NA","5929","Hommel2002EXP01","10","9820","10","yes","1024"
"n","yes","no","rect","100","100","949","949","black","no","xpyriment","legacy","blue","yellow","red","green","legacy","0","uniform","1","1","/","1","NA","NA","NA","1","NA","NA","1","NA","0","42","0","0","0","0","42","42","0","0","42","42","42","42","42","0","0","0","0","0","0","42","42","42","42","42","42","42","42","42","42","0","42","NA","NA","1","NA","0","01/01/16 11:46:17","Default description","no","chinese-japanese-korean","no","18","white","開始實驗A","768","legacy","C:/Users/Evonne/Desktop/test/Compatibility/3_Data Collection/RAW/A-1.csv","xpyriment","Interactive Ising","3.0.2","yes","0","/","NA","space","space","space","/","space","space","/","space","624","NA","14519","4112","8635","2222","21644","8606","624","1775","legacy","1500","experiment","1","odd","NA","NA","NA","NA","377308","NA","NA","NA","NA","362781","469964","NA","NA","81494","NA","471898","470395","81494","NA","472899","393312","456076","437758","472902","44853","48982","57622","59849","36243","6021","474402","393816","456080","439261","474405","474406","NA","475034","353631","475135","34423","469964","NA","NA","377309","NA","5929","Hommel2002EXP01","11","10444","11","yes","1024"
"y","yes","no","circle","100","100","935","935","black","no","xpyriment","legacy","blue","red","yellow","green","legacy","0","uniform","1","1","z","1","NA","NA","NA","1","NA","NA","1","NA","0","43","0","0","0","0","43","43","0","0","43","43","43","43","43","0","0","0","0","0","0","43","43","43","43","43","43","43","43","43","43","0","43","NA","NA","1","NA","0","01/01/16 11:46:17","Default description","no","chinese-japanese-korean","no","18","white","開始實驗A","768","legacy","C:/Users/Evonne/Desktop/test/Compatibility/3_Data Collection/RAW/A-1.csv","xpyriment","Interactive Ising","3.0.2","yes","0","z","NA","space","space","space","/","space","space","z","space","785","NA","14519","4112","8635","2222","21644","8606","785","1775","legacy","1500","experiment","1","odd","NA","NA","NA","NA","377308","NA","NA","NA","NA","362781","479232","NA","NA","81494","NA","480909","479363","81494","NA","481909","481912","456076","437758","472902","44853","48982","57622","59849","36243","6021","483412","483415","456080","439261","474405","483416","NA","484206","353631","484307","34423","479231","NA","NA","377309","NA","5929","Hommel2002EXP01","12","11229","12","yes","1024"
"y","yes","no","circle","100","100","957","957","black","no","xpyriment","legacy","yellow","green","blue","red","legacy","0","uniform","1","1","z","1","NA","NA","NA","1","NA","NA","1","NA","0","44","0","0","0","0","44","44","0","0","44","44","44","44","44","0","0","0","0","0","0","44","44","44","44","44","44","44","44","44","44","0","44","NA","NA","1","NA","0","01/01/16 11:46:17","Default description","no","chinese-japanese-korean","no","18","white","開始實驗A","768","legacy","C:/Users/Evonne/Desktop/test/Compatibility/3_Data Collection/RAW/A-1.csv","xpyriment","Interactive Ising","3.0.2","yes","0","z","NA","space","space","space","/","space","space","z","space","1224","NA","14519","4112","8635","2222","21644","8606","1224","1775","legacy","500","experiment","1","odd","NA","NA","NA","NA","377308","NA","NA","NA","NA","362781","488213","NA","NA","81494","NA","490021","488481","81494","NA","491022","491025","456076","437758","472902","44853","48982","57622","59849","36243","6021","491525","491528","456080","439261","474405","491529","NA","492758","353631","492858","34423","488213","NA","NA","377309","NA","5929","Hommel2002EXP01","13","12453","13","yes","1024"
"n","yes","no","rect","100","100","959","959","black","no","xpyriment","legacy","red","yellow","green","blue","legacy","0","uniform","1","1","/","1","NA","NA","NA","1","NA","NA","1","NA","0","45","0","0","0","0","45","45","0","0","45","45","45","45","45","0","0","0","0","0","0","45","45","45","45","45","45","45","45","45","45","0","45","NA","NA","1","NA","0","01/01/16 11:46:17","Default description","no","chinese-japanese-korean","no","18","white","開始實驗A","768","legacy","C:/Users/Evonne/Desktop/test/Compatibility/3_Data Collection/RAW/A-1.csv","xpyriment","Interactive Ising","3.0.2","yes","0","/","NA","space","space","space","/","space","space","/","space","982","NA","14519","4112","8635","2222","21644","8606","982","1775","legacy","1000","experiment","1","odd","NA","NA","NA","NA","377308","NA","NA","NA","NA","362781","497070","NA","NA","81494","NA","498801","497255","81494","NA","499801","491025","456076","437758","499804","44853","48982","57622","59849","36243","6021","500804","491528","456080","439261","500807","500807","NA","501794","353631","501895","34423","497070","NA","NA","377309","NA","5929","Hommel2002EXP01","14","13435","14","yes","1024"
"y","yes","no","rect","100","100","969","969","black","no","xpyriment","legacy","blue","green","red","yellow","legacy","0","uniform","1","1","/","1","NA","NA","NA","1","NA","NA","1","NA","0","46","0","0","0","0","46","46","0","0","46","46","46","46","46","0","0","0","0","0","0","46","46","46","46","46","46","46","46","46","46","0","46","NA","NA","1","NA","0","01/01/16 11:46:17","Default description","no","chinese-japanese-korean","no","18","white","開始實驗A","768","legacy","C:/Users/Evonne/Desktop/test/Compatibility/3_Data Collection/RAW/A-1.csv","xpyriment","Interactive Ising","3.0.2","yes","0","/","NA","space","space","space","/","space","space","/","space","1102","NA","14519","4112","8635","2222","21644","8606","1102","1775","legacy","0","experiment","1","odd","NA","NA","NA","NA","377308","NA","NA","NA","NA","362781","506225","NA","NA","81494","NA","507930","506380","81494","NA","508930","491025","456076","508934","499804","44853","48982","57622","59849","36243","6021","508934","491528","456080","508937","500807","508938","NA","510045","353631","510146","34423","506224","NA","NA","377309","NA","5929","Hommel2002EXP01","15","14537","15","yes","1024"
"n","yes","no","circle","100","100","967","967","black","no","xpyriment","legacy","yellow","blue","green","red","legacy","0","uniform","1","1","z","1","NA","NA","NA","1","NA","NA","1","NA","0","47","0","0","0","0","47","47","0","0","47","47","47","47","47","0","0","0","0","0","0","47","47","47","47","47","47","47","47","47","47","0","47","NA","NA","1","NA","0","01/01/16 11:46:17","Default description","no","chinese-japanese-korean","no","18","white","開始實驗A","768","legacy","C:/Users/Evonne/Desktop/test/Compatibility/3_Data Collection/RAW/A-1.csv","xpyriment","Interactive Ising","3.0.2","yes","0","z","NA","space","space","space","/","space","space","z","space","935","NA","14519","4112","8635","2222","21644","8606","935","1775","legacy","1500","experiment","1","odd","NA","NA","NA","NA","377308","NA","NA","NA","NA","362781","514378","NA","NA","81494","NA","516171","514621","81494","NA","517171","491025","517174","508934","499804","44853","48982","57622","59849","36243","6021","518674","491528","518678","508937","500807","518679","NA","519620","353631","519720","34423","514378","NA","NA","377309","NA","5929","Hommel2002EXP01","16","15472","16","yes","1024"
"n","yes","no","rect","100","100","968","968","black","no","xpyriment","legacy","red","yellow","green","blue","legacy","0","uniform","1","1","/","1","NA","NA","NA","1","NA","NA","1","NA","0","48","0","0","0","0","48","48","0","0","48","48","48","48","48","0","0","0","0","0","0","48","48","48","48","48","48","48","48","48","48","0","48","NA","NA","1","NA","0","01/01/16 11:46:17","Default description","no","chinese-japanese-korean","no","18","white","開始實驗A","768","legacy","C:/Users/Evonne/Desktop/test/Compatibility/3_Data Collection/RAW/A-1.csv","xpyriment","Interactive Ising","3.0.2","yes","0","/","NA","space","space","space","/","space","space","/","space","998","NA","14519","4112","8635","2222","21644","8606","998","1775","legacy","0","experiment","1","odd","NA","NA","NA","NA","377308","NA","NA","NA","NA","362781","523763","NA","NA","81494","NA","525701","524199","81494","NA","526702","491025","517174","508934","526705","44853","48982","57622","59849","36243","6021","526705","491528","518678","508937","526708","526709","NA","527712","353631","527812","34423","523763","NA","NA","377309","NA","5929","Hommel2002EXP01","17","16470","17","yes","1024"
"n","yes","no","rect","100","100","957","957","black","no","xpyriment","legacy","blue","yellow","red","green","legacy","0","uniform","1","1","/","1","NA","NA","NA","1","NA","NA","1","NA","0","49","0","0","0","0","49","49","0","0","49","49","49","49","49","0","0","0","0","0","0","49","49","49","49","49","49","49","49","49","49","0","49","NA","NA","1","NA","0","01/01/16 11:46:17","Default description","no","chinese-japanese-korean","no","18","white","開始實驗A","768","legacy","C:/Users/Evonne/Desktop/test/Compatibility/3_Data Collection/RAW/A-1.csv","xpyriment","Interactive Ising","3.0.2","yes","0","/","NA","space","space","space","/","space","space","/","space","757","NA","14519","4112","8635","2222","21644","8606","757","1775","legacy","500","experiment","1","odd","NA","NA","NA","NA","377308","NA","NA","NA","NA","362781","531824","NA","NA","81494","NA","533501","531956","81494","NA","534502","491025","517174","508934","534505","44853","48982","57622","59849","36243","6021","535005","491528","518678","508937","535008","535008","NA","535770","353631","535870","34423","531823","NA","NA","377309","NA","5929","Hommel2002EXP01","18","17227","18","yes","1024"
"y","yes","no","circle","100","100","959","959","black","no","xpyriment","legacy","green","yellow","red","blue","legacy","0","uniform","1","1","z","1","NA","NA","NA","1","NA","NA","1","NA","0","50","0","0","0","0","50","50","0","0","50","50","50","50","50","0","0","0","0","0","0","50","50","50","50","50","50","50","50","50","50","0","50","NA","NA","1","NA","0","01/01/16 11:46:17","Default description","no","chinese-japanese-korean","no","18","white","開始實驗A","768","legacy","C:/Users/Evonne/Desktop/test/Compatibility/3_Data Collection/RAW/A-1.csv","xpyriment","Interactive Ising","3.0.2","yes","0","z","NA","space","space","space","/","space","space","z","space","1001","NA","14519","4112","8635","2222","21644","8606","1001","1775","legacy","0","experiment","1","odd","NA","NA","NA","NA","377308","NA","NA","NA","NA","362781","539649","NA","NA","81494","NA","541478","539935","81494","NA","542479","542482","517174","508934","534505","44853","48982","57622","59849","36243","6021","542482","542485","518678","508937","535008","542486","NA","543493","353631","543593","34423","539648","NA","NA","377309","NA","5929","Hommel2002EXP01","19","18228","19","yes","1024"
"y","yes","no","circle","100","100","971","971","black","no","xpyriment","legacy","red","green","yellow","blue","legacy","0","uniform","1","1","z","1","NA","NA","NA","1","NA","NA","1","NA","0","51","0","0","0","0","51","51","0","0","51","51","51","51","51","0","0","0","0","0","0","51","51","51","51","51","51","51","51","51","51","0","51","NA","NA","1","NA","0","01/01/16 11:46:17","Default description","no","chinese-japanese-korean","no","18","white","開始實驗A","768","legacy","C:/Users/Evonne/Desktop/test/Compatibility/3_Data Collection/RAW/A-1.csv","xpyriment","Interactive Ising","3.0.2","yes","0","z","NA","space","space","space","/","space","space","z","space","1193","NA","14519","4112","8635","2222","21644","8606","1193","1775","legacy","0","experiment","1","odd","NA","NA","NA","NA","377308","NA","NA","NA","NA","362781","547513","NA","NA","81494","NA","549331","547785","81494","NA","550332","550335","517174","508934","534505","44853","48982","57622","59849","36243","6021","550335","550338","518678","508937","535008","550339","NA","551537","353631","551637","34423","547513","NA","NA","377309","NA","5929","Hommel2002EXP01","20","19421","20","yes","1024"
"y","yes","no","circle","100","100","967","967","black","no","xpyriment","legacy","green","red","blue","yellow","legacy","0","uniform","1","1","z","1","NA","NA","NA","1","NA","NA","1","NA","0","52","0","0","0","0","52","52","0","0","52","52","52","52","52","0","0","0","0","0","0","52","52","52","52","52","52","52","52","52","52","0","52","NA","NA","1","NA","0","01/01/16 11:46:17","Default description","no","chinese-japanese-korean","no","18","white","開始實驗A","768","legacy","C:/Users/Evonne/Desktop/test/Compatibility/3_Data Collection/RAW/A-1.csv","xpyriment","Interactive Ising","3.0.2","yes","0","z","NA","space","space","space","/","space","space","z","space","891","NA","14519","4112","8635","2222","21644","8606","891","1775","legacy","1000","experiment","1","odd","NA","NA","NA","NA","377308","NA","NA","NA","NA","362781","555558","NA","NA","81494","NA","557312","555767","81494","NA","558312","558315","517174","508934","534505","44853","48982","57622","59849","36243","6021","559315","559319","518678","508937","535008","559319","NA","560217","353631","560317","34423","555558","NA","NA","377309","NA","5929","Hommel2002EXP01","21","20312","21","yes","1024"
"y","yes","no","circle","100","100","967","967","black","no","xpyriment","legacy","yellow","green","red","blue","legacy","0","uniform","1","1","z","1","NA","NA","NA","1","NA","NA","1","NA","0","53","0","0","0","0","53","53","0","0","53","53","53","53","53","0","0","0","0","0","0","53","53","53","53","53","53","53","53","53","53","0","53","NA","NA","1","NA","0","01/01/16 11:46:17","Default description","no","chinese-japanese-korean","no","18","white","開始實驗A","768","legacy","C:/Users/Evonne/Desktop/test/Compatibility/3_Data Collection/RAW/A-1.csv","xpyriment","Interactive Ising","3.0.2","yes","0","z","NA","space","space","space","/","space","space","z","space","970","NA","14519","4112","8635","2222","21644","8606","970","1775","legacy","1500","experiment","1","odd","NA","NA","NA","NA","377308","NA","NA","NA","NA","362781","564482","NA","NA","81494","NA","566164","564620","81494","NA","567165","567168","517174","508934","534505","44853","48982","57622","59849","36243","6021","568668","568671","518678","508937","535008","568672","NA","569648","353631","569748","34423","564481","NA","NA","377309","NA","5929","Hommel2002EXP01","22","21282","22","yes","1024"
"y","yes","no","rect","100","100","960","960","black","no","xpyriment","legacy","blue","green","yellow","red","legacy","0","uniform","1","1","/","1","NA","NA","NA","1","NA","NA","1","NA","0","54","0","0","0","0","54","54","0","0","54","54","54","54","54","0","0","0","0","0","0","54","54","54","54","54","54","54","54","54","54","0","54","NA","NA","1","NA","0","01/01/16 11:46:17","Default description","no","chinese-japanese-korean","no","18","white","開始實驗A","768","legacy","C:/Users/Evonne/Desktop/test/Compatibility/3_Data Collection/RAW/A-1.csv","xpyriment","Interactive Ising","3.0.2","yes","0","/","NA","space","space","space","/","space","space","/","space","809","NA","14519","4112","8635","2222","21644","8606","809","1775","legacy","500","experiment","1","odd","NA","NA","NA","NA","377308","NA","NA","NA","NA","362781","573937","NA","NA","81494","NA","575680","574134","81494","NA","576681","567168","517174","576684","534505","44853","48982","57622","59849","36243","6021","577184","568671","518678","577187","535008","577187","NA","578001","353631","578101","34423","573937","NA","NA","377309","NA","5929","Hommel2002EXP01","23","22091","23","yes","1024"
"n","yes","no","circle","100","100","957","957","black","no","xpyriment","legacy","red","blue","green","yellow","legacy","0","uniform","1","1","z","1","NA","NA","NA","1","NA","NA","1","NA","0","55","0","0","0","0","55","55","0","0","55","55","55","55","55","0","0","0","0","0","0","55","55","55","55","55","55","55","55","55","55","0","55","NA","NA","1","NA","0","01/01/16 11:46:17","Default description","no","chinese-japanese-korean","no","18","white","開始實驗A","768","legacy","C:/Users/Evonne/Desktop/test/Compatibility/3_Data Collection/RAW/A-1.csv","xpyriment","Interactive Ising","3.0.2","yes","0","z","NA","space","space","space","/","space","space","z","space","880","NA","14519","4112","8635","2222","21644","8606","880","1775","legacy","1500","experiment","1","odd","NA","NA","NA","NA","377308","NA","NA","NA","NA","362781","582728","NA","NA","81494","NA","584745","583242","81494","NA","585746","567168","585749","576684","534505","44853","48982","57622","59849","36243","6021","587249","568671","587252","577187","535008","587253","NA","588138","353631","588238","34423","582728","NA","NA","377309","NA","5929","Hommel2002EXP01","24","22971","24","yes","1024"
"n","yes","no","circle","100","100","954","954","black","no","xpyriment","legacy","green","blue","yellow","red","legacy","0","uniform","1","1","z","1","NA","NA","NA","1","NA","NA","1","NA","0","56","0","0","0","0","56","56","0","0","56","56","56","56","56","0","0","0","0","0","0","56","56","56","56","56","56","56","56","56","56","0","56","NA","NA","1","NA","0","01/01/16 11:46:17","Default description","no","chinese-japanese-korean","no","18","white","開始實驗A","768","legacy","C:/Users/Evonne/Desktop/test/Compatibility/3_Data Collection/RAW/A-1.csv","xpyriment","Interactive Ising","3.0.2","yes","0","z","NA","space","space","space","/","space","space","z","space","886","NA","14519","4112","8635","2222","21644","8606","886","1775","legacy","0","experiment","1","odd","NA","NA","NA","NA","377308","NA","NA","NA","NA","362781","592076","NA","NA","81494","NA","593753","592214","81494","NA","594753","567168","594756","576684","534505","44853","48982","57622","59849","36243","6021","594756","568671","594759","577187","535008","594760","NA","595651","353631","595752","34423","592075","NA","NA","377309","NA","5929","Hommel2002EXP01","25","23857","25","yes","1024"
"n","yes","no","rect","100","100","948","948","black","no","xpyriment","legacy","red","yellow","blue","green","legacy","0","uniform","1","1","/","1","NA","NA","NA","1","NA","NA","1","NA","0","57","0","0","0","0","57","57","0","0","57","57","57","57","57","0","0","0","0","0","0","57","57","57","57","57","57","57","57","57","57","0","57","NA","NA","1","NA","0","01/01/16 11:46:17","Default description","no","chinese-japanese-korean","no","18","white","開始實驗A","768","legacy","C:/Users/Evonne/Desktop/test/Compatibility/3_Data Collection/RAW/A-1.csv","xpyriment","Interactive Ising","3.0.2","yes","0","/","NA","space","space","space","/","space","space","/","space","793","NA","14519","4112","8635","2222","21644","8606","793","1775","legacy","1000","experiment","1","odd","NA","NA","NA","NA","377308","NA","NA","NA","NA","362781","599262","NA","NA","81494","NA","601088","599544","81494","NA","602088","567168","594756","576684","602091","44853","48982","57622","59849","36243","6021","603091","568671","594759","577187","603095","603095","NA","603893","353631","603994","34423","599261","NA","NA","377309","NA","5929","Hommel2002EXP01","26","24650","26","yes","1024"
"y","yes","no","rect","100","100","953","953","black","no","xpyriment","legacy","green","red","yellow","blue","legacy","0","uniform","1","1","/","1","NA","NA","NA","1","NA","NA","1","NA","0","58","0","0","0","0","58","58","0","0","58","58","58","58","58","0","0","0","0","0","0","58","58","58","58","58","58","58","58","58","58","0","58","NA","NA","1","NA","0","01/01/16 11:46:17","Default description","no","chinese-japanese-korean","no","18","white","開始實驗A","768","legacy","C:/Users/Evonne/Desktop/test/Compatibility/3_Data Collection/RAW/A-1.csv","xpyriment","Interactive Ising","3.0.2","yes","0","/","NA","space","space","space","/","space","space","/","space","1102","NA","14519","4112","8635","2222","21644","8606","1102","1775","legacy","0","experiment","1","odd","NA","NA","NA","NA","377308","NA","NA","NA","NA","362781","607751","NA","NA","81494","NA","609580","608032","81494","NA","610580","567168","594756","610583","602091","44853","48982","57622","59849","36243","6021","610583","568671","594759","610586","603095","610587","NA","611695","353631","611795","34423","607751","NA","NA","377309","NA","5929","Hommel2002EXP01","27","25752","27","yes","1024"
"n","yes","no","circle","100","100","950","950","black","no","xpyriment","legacy","red","yellow","blue","green","legacy","0","uniform","1","1","z","1","NA","NA","NA","1","NA","NA","1","NA","0","59","0","0","0","0","59","59","0","0","59","59","59","59","59","0","0","0","0","0","0","59","59","59","59","59","59","59","59","59","59","0","59","NA","NA","1","NA","0","01/01/16 11:46:17","Default description","no","chinese-japanese-korean","no","18","white","開始實驗A","768","legacy","C:/Users/Evonne/Desktop/test/Compatibility/3_Data Collection/RAW/A-1.csv","xpyriment","Interactive Ising","3.0.2","yes","0","z","NA","space","space","space","/","space","space","z","space","854","NA","14519","4112","8635","2222","21644","8606","854","1775","legacy","500","experiment","1","odd","NA","NA","NA","NA","377308","NA","NA","NA","NA","362781","615673","NA","NA","81494","NA","617491","615945","81494","NA","618491","567168","618494","610583","602091","44853","48982","57622","59849","36243","6021","618994","568671","618997","610586","603095","618998","NA","619857","353631","619957","34423","615673","NA","NA","377309","NA","5929","Hommel2002EXP01","28","26606","28","yes","1024"
"y","yes","no","rect","100","100","939","939","black","no","xpyriment","legacy","blue","green","yellow","red","legacy","0","uniform","1","1","/","1","NA","NA","NA","1","NA","NA","1","NA","0","60","0","0","0","0","60","60","0","0","60","60","60","60","60","0","0","0","0","0","0","60","60","60","60","60","60","60","60","60","60","0","60","NA","NA","1","NA","0","01/01/16 11:46:17","Default description","no","chinese-japanese-korean","no","18","white","開始實驗A","768","legacy","C:/Users/Evonne/Desktop/test/Compatibility/3_Data Collection/RAW/A-1.csv","xpyriment","Interactive Ising","3.0.2","yes","0","/","NA","space","space","space","/","space","space","/","space","628","NA","14519","4112","8635","2222","21644","8606","628","1775","legacy","500","experiment","1","odd","NA","NA","NA","NA","377308","NA","NA","NA","NA","362781","624103","NA","NA","81494","NA","625917","624414","81494","NA","626918","567168","618494","626922","602091","44853","48982","57622","59849","36243","6021","627422","568671","618997","627425","603095","627425","NA","628058","353631","628158","34423","624103","NA","NA","377309","NA","5929","Hommel2002EXP01","29","27234","29","yes","1024"
"n","yes","no","rect","100","100","940","940","black","no","xpyriment","legacy","yellow","blue","green","red","legacy","0","uniform","1","1","/","1","NA","NA","NA","1","NA","NA","1","NA","0","61","0","0","0","0","61","61","0","0","61","61","61","61","61","0","0","0","0","0","0","61","61","61","61","61","61","61","61","61","61","0","61","NA","NA","1","NA","0","01/01/16 11:46:17","Default description","no","chinese-japanese-korean","no","18","white","開始實驗A","768","legacy","C:/Users/Evonne/Desktop/test/Compatibility/3_Data Collection/RAW/A-1.csv","xpyriment","Interactive Ising","3.0.2","yes","0","/","NA","space","space","space","/","space","space","/","space","971","NA","14519","4112","8635","2222","21644","8606","971","1775","legacy","500","experiment","1","odd","NA","NA","NA","NA","377308","NA","NA","NA","NA","362781","632175","NA","NA","81494","NA","633857","632312","81494","NA","634858","567168","618494","626922","634862","44853","48982","57622","59849","36243","6021","635362","568671","618997","627425","635365","635365","NA","636341","353631","636441","34423","632175","NA","NA","377309","NA","5929","Hommel2002EXP01","30","28205","30","yes","1024"
"y","yes","no","circle","100","100","946","946","black","no","xpyriment","legacy","yellow","red","green","blue","legacy","0","uniform","1","1","z","1","NA","NA","NA","1","NA","NA","1","NA","0","62","0","0","0","0","62","62","0","0","62","62","62","62","62","0","0","0","0","0","0","62","62","62","62","62","62","62","62","62","62","0","62","NA","NA","1","NA","0","01/01/16 11:46:17","Default description","no","chinese-japanese-korean","no","18","white","開始實驗A","768","legacy","C:/Users/Evonne/Desktop/test/Compatibility/3_Data Collection/RAW/A-1.csv","xpyriment","Interactive Ising","3.0.2","yes","0","z","NA","space","space","space","/","space","space","z","space","1138","NA","14519","4112","8635","2222","21644","8606","1138","1775","legacy","1000","experiment","1","odd","NA","NA","NA","NA","377308","NA","NA","NA","NA","362781","640030","NA","NA","81494","NA","641852","640312","81494","NA","642853","642856","618494","626922","634862","44853","48982","57622","59849","36243","6021","643856","643859","618997","627425","635365","643860","NA","645003","353631","645103","34423","640030","NA","NA","377309","NA","5929","Hommel2002EXP01","31","29343","31","yes","1024"
"y","yes","no","rect","100","100","953","953","black","no","xpyriment","legacy","yellow","red","green","blue","legacy","0","uniform","1","1","/","1","NA","NA","NA","1","NA","NA","1","NA","0","63","0","0","0","0","63","63","0","0","63","63","63","63","63","0","0","0","0","0","0","63","63","63","63","63","63","63","63","63","63","0","63","NA","NA","1","NA","0","01/01/16 11:46:17","Default description","no","chinese-japanese-korean","no","18","white","開始實驗A","768","legacy","C:/Users/Evonne/Desktop/test/Compatibility/3_Data Collection/RAW/A-1.csv","xpyriment","Interactive Ising","3.0.2","yes","0","/","NA","space","space","space","/","space","space","/","space","1178","NA","14519","4112","8635","2222","21644","8606","1178","1775","legacy","1000","experiment","1","odd","NA","NA","NA","NA","377308","NA","NA","NA","NA","362781","649288","NA","NA","81494","NA","651063","649522","81494","NA","652064","642856","618494","652067","634862","44853","48982","57622","59849","36243","6021","653067","643859","618997","653070","635365","653070","NA","654253","353631","654353","34423","649287","NA","NA","377309","NA","5929","Hommel2002EXP01","32","30521","32","yes","1024"
"y","yes","no","rect","100","100","936","936","black","no","xpyriment","legacy","yellow","red","green","blue","legacy","0","uniform","1","1","/","1","0","NA","NA","1","0","NA","1","NA","1","64","0","0","0","0","64","64","0","0","64","64","64","64","64","0","0","0","0","0","0","64","64","64","64","64","64","64","64","64","64","0","64","0","NA","1","NA","0","01/01/16 11:46:17","Default description","no","chinese-japanese-korean","no","18","white","開始實驗A","768","legacy","C:/Users/Evonne/Desktop/test/Compatibility/3_Data Collection/RAW/A-1.csv","xpyriment","Interactive Ising","3.0.2","no","0","/","space","space","space","space","/","space","space","/","space","936","2329","19234","4112","8635","2222","21644","8606","936","1775","legacy","500","experiment","1","odd","674314","676655","NA","NA","377308","NA","NA","NA","NA","655054","680726","676644","NA","81494","NA","682426","680875","81494","NA","683426","642856","618494","683429","634862","44853","48982","57622","59849","36243","6021","683929","643859","618997","683932","635365","683932","NA","684874","353631","684974","34423","680725","676655","NA","377309","NA","5929","Hommel2002EXP01","1","936","1","yes","1024"
"n","yes","no","rect","100","100","1082","1082","black","no","xpyriment","legacy","red","green","blue","yellow","legacy","0","uniform","1","1","/","1","0","NA","NA","1","0","NA","1","NA","1","65","0","0","0","0","65","65","0","0","65","65","65","65","65","0","0","0","0","0","0","65","65","65","65","65","65","65","65","65","65","0","65","0","NA","1","NA","0","01/01/16 11:46:17","Default description","no","chinese-japanese-korean","no","18","white","開始實驗A","768","legacy","C:/Users/Evonne/Desktop/test/Compatibility/3_Data Collection/RAW/A-1.csv","xpyriment","Interactive Ising","3.0.2","no","0","/","space","space","space","space","/","space","space","/","space","1229","2329","19234","4112","8635","2222","21644","8606","1229","1775","legacy","0","experiment","1","odd","674314","676655","NA","NA","377308","NA","NA","NA","NA","655054","689268","676644","NA","81494","NA","690966","689425","81494","NA","691967","642856","618494","683429","691970","44853","48982","57622","59849","36243","6021","691971","643859","618997","683932","691973","691974","NA","693208","353631","693308","34423","689267","676655","NA","377309","NA","5929","Hommel2002EXP01","2","2165","2","yes","1024"
"n","yes","no","circle","100","100","1028","1028","black","no","xpyriment","legacy","green","yellow","blue","red","legacy","0","uniform","1","1","z","1","0","NA","NA","1","0","NA","1","NA","1","66","0","0","0","0","66","66","0","0","66","66","66","66","66","0","0","0","0","0","0","66","66","66","66","66","66","66","66","66","66","0","66","0","NA","1","NA","0","01/01/16 11:46:17","Default description","no","chinese-japanese-korean","no","18","white","開始實驗A","768","legacy","C:/Users/Evonne/Desktop/test/Compatibility/3_Data Collection/RAW/A-1.csv","xpyriment","Interactive Ising","3.0.2","no","0","z","space","space","space","space","/","space","space","z","space","921","2329","19234","4112","8635","2222","21644","8606","921","1775","legacy","0","experiment","1","odd","674314","676655","NA","NA","377308","NA","NA","NA","NA","655054","697723","676644","NA","81494","NA","699616","698113","81494","NA","700617","642856","700620","683429","691970","44853","48982","57622","59849","36243","6021","700620","643859","700623","683932","691973","700624","NA","701550","353631","701650","34423","697722","676655","NA","377309","NA","5929","Hommel2002EXP01","3","3086","3","yes","1024"
"n","yes","no","rect","100","100","979","979","black","no","xpyriment","legacy","blue","yellow","green","red","legacy","0","uniform","1","1","/","1","0","NA","NA","1","0","NA","1","NA","1","67","0","0","0","0","67","67","0","0","67","67","67","67","67","0","0","0","0","0","0","67","67","67","67","67","67","67","67","67","67","0","67","0","NA","1","NA","0","01/01/16 11:46:17","Default description","no","chinese-japanese-korean","no","18","white","開始實驗A","768","legacy","C:/Users/Evonne/Desktop/test/Compatibility/3_Data Collection/RAW/A-1.csv","xpyriment","Interactive Ising","3.0.2","no","0","/","space","space","space","space","/","space","space","/","space","832","2329","19234","4112","8635","2222","21644","8606","832","1775","legacy","1000","experiment","1","odd","674314","676655","NA","NA","377308","NA","NA","NA","NA","655054","705712","676644","NA","81494","NA","707393","705847","81494","NA","708394","642856","700620","683429","708397","44853","48982","57622","59849","36243","6021","709397","643859","700623","683932","709400","709401","NA","710239","353631","710339","34423","705712","676655","NA","377309","NA","5929","Hommel2002EXP01","4","3918","4","yes","1024"
"y","yes","no","rect","100","100","1012","1012","black","no","xpyriment","legacy","yellow","blue","green","red","legacy","0","uniform","1","1","/","1","0","NA","NA","1","0","NA","1","NA","1","68","0","0","0","0","68","68","0","0","68","68","68","68","68","0","0","0","0","0","0","68","68","68","68","68","68","68","68","68","68","0","68","0","NA","1","NA","0","01/01/16 11:46:17","Default description","no","chinese-japanese-korean","no","18","white","開始實驗A","768","legacy","C:/Users/Evonne/Desktop/test/Compatibility/3_Data Collection/RAW/A-1.csv","xpyriment","Interactive Ising","3.0.2","no","0","/","space","space","space","space","/","space","space","/","space","1143","2329","19234","4112","8635","2222","21644","8606","1143","1775","legacy","1500","experiment","1","odd","674314","676655","NA","NA","377308","NA","NA","NA","NA","655054","714313","676644","NA","81494","NA","716135","714590","81494","NA","717135","642856","700620","717138","708397","44853","48982","57622","59849","36243","6021","718639","643859","700623","718642","709400","718642","NA","719790","353631","719890","34423","714312","676655","NA","377309","NA","5929","Hommel2002EXP01","5","5061","5","yes","1024"
"y","yes","no","circle","100","100","1028","1028","black","no","xpyriment","legacy","yellow","blue","green","red","legacy","0","uniform","1","1","z","1","0","NA","NA","1","0","NA","1","NA","1","69","0","0","0","0","69","69","0","0","69","69","69","69","69","0","0","0","0","0","0","69","69","69","69","69","69","69","69","69","69","0","69","0","NA","1","NA","0","01/01/16 11:46:17","Default description","no","chinese-japanese-korean","no","18","white","開始實驗A","768","legacy","C:/Users/Evonne/Desktop/test/Compatibility/3_Data Collection/RAW/A-1.csv","xpyriment","Interactive Ising","3.0.2","no","0","z","space","space","space","space","/","space","space","z","space","1110","2329","19234","4112","8635","2222","21644","8606","1110","1775","legacy","1000","experiment","1","odd","674314","676655","NA","NA","377308","NA","NA","NA","NA","655054","723705","676644","NA","81494","NA","725467","723919","81494","NA","726467","726470","700620","717138","708397","44853","48982","57622","59849","36243","6021","727470","727473","700623","718642","709400","727474","NA","728589","353631","728689","34423","723705","676655","NA","377309","NA","5929","Hommel2002EXP01","6","6171","6","yes","1024"
"y","yes","no","circle","100","100","1042","1042","black","no","xpyriment","legacy","green","blue","yellow","red","legacy","0","uniform","1","1","z","1","0","NA","NA","1","0","NA","1","NA","1","70","0","0","0","0","70","70","0","0","70","70","70","70","70","0","0","0","0","0","0","70","70","70","70","70","70","70","70","70","70","0","70","0","NA","1","NA","0","01/01/16 11:46:17","Default description","no","chinese-japanese-korean","no","18","white","開始實驗A","768","legacy","C:/Users/Evonne/Desktop/test/Compatibility/3_Data Collection/RAW/A-1.csv","xpyriment","Interactive Ising","3.0.2","no","0","z","space","space","space","space","/","space","space","z","space","1125","2329","19234","4112","8635","2222","21644","8606","1125","1775","legacy","500","experiment","1","odd","674314","676655","NA","NA","377308","NA","NA","NA","NA","655054","732815","676644","NA","81494","NA","734542","732997","81494","NA","735543","735546","700620","717138","708397","44853","48982","57622","59849","36243","6021","736046","736049","700623","718642","709400","736050","NA","737180","353631","737281","34423","732814","676655","NA","377309","NA","5929","Hommel2002EXP01","7","7296","7","yes","1024"
"n","yes","no","rect","100","100","1007","1007","black","no","xpyriment","legacy","yellow","red","green","blue","legacy","0","uniform","1","1","/","1","0","NA","NA","1","0","NA","1","NA","1","71","0","0","0","0","71","71","0","0","71","71","71","71","71","0","0","0","0","0","0","71","71","71","71","71","71","71","71","71","71","0","71","0","NA","1","NA","0","01/01/16 11:46:17","Default description","no","chinese-japanese-korean","no","18","white","開始實驗A","768","legacy","C:/Users/Evonne/Desktop/test/Compatibility/3_Data Collection/RAW/A-1.csv","xpyriment","Interactive Ising","3.0.2","no","0","/","space","space","space","space","/","space","space","/","space","760","2329","19234","4112","8635","2222","21644","8606","760","1775","legacy","500","experiment","1","odd","674314","676655","NA","NA","377308","NA","NA","NA","NA","655054","741303","676644","NA","81494","NA","742990","741446","81494","NA","743990","735546","700620","717138","743993","44853","48982","57622","59849","36243","6021","744493","736049","700623","718642","744496","744497","NA","745263","353631","745363","34423","741302","676655","NA","377309","NA","5929","Hommel2002EXP01","8","8056","8","yes","1024"
"y","yes","no","rect","100","100","1017","1017","black","no","xpyriment","legacy","yellow","green","red","blue","legacy","0","uniform","1","1","/","1","0","NA","NA","1","0","NA","1","NA","1","72","0","0","0","0","72","72","0","0","72","72","72","72","72","0","0","0","0","0","0","72","72","72","72","72","72","72","72","72","72","0","72","0","NA","1","NA","0","01/01/16 11:46:17","Default description","no","chinese-japanese-korean","no","18","white","開始實驗A","768","legacy","C:/Users/Evonne/Desktop/test/Compatibility/3_Data Collection/RAW/A-1.csv","xpyriment","Interactive Ising","3.0.2","no","0","/","space","space","space","space","/","space","space","/","space","1105","2329","19234","4112","8635","2222","21644","8606","1105","1775","legacy","0","experiment","1","odd","674314","676655","NA","NA","377308","NA","NA","NA","NA","655054","749496","676644","NA","81494","NA","751362","749860","81494","NA","752363","735546","700620","752366","743993","44853","48982","57622","59849","36243","6021","752366","736049","700623","752369","744496","752370","NA","753480","353631","753581","34423","749496","676655","NA","377309","NA","5929","Hommel2002EXP01","9","9161","9","yes","1024"
"y","yes","no","circle","100","100","1001","1001","black","no","xpyriment","legacy","blue","green","red","yellow","legacy","0","uniform","1","1","z","1","0","NA","NA","1","0","NA","1","NA","1","73","0","0","0","0","73","73","0","0","73","73","73","73","73","0","0","0","0","0","0","73","73","73","73","73","73","73","73","73","73","0","73","0","NA","1","NA","0","01/01/16 11:46:17","Default description","no","chinese-japanese-korean","no","18","white","開始實驗A","768","legacy","C:/Users/Evonne/Desktop/test/Compatibility/3_Data Collection/RAW/A-1.csv","xpyriment","Interactive Ising","3.0.2","no","0","z","space","space","space","space","/","space","space","z","space","857","2329","19234","4112","8635","2222","21644","8606","857","1775","legacy","1500","experiment","1","odd","674314","676655","NA","NA","377308","NA","NA","NA","NA","655054","757616","676644","NA","81494","NA","759305","757759","81494","NA","760306","760309","700620","752366","743993","44853","48982","57622","59849","36243","6021","761809","761812","700623","752369","744496","761813","NA","762675","353631","762775","34423","757615","676655","NA","377309","NA","5929","Hommel2002EXP01","10","10018","10","yes","1024"
"y","yes","no","circle","100","100","1004","1004","black","no","xpyriment","legacy","red","blue","yellow","green","legacy","0","uniform","1","1","z","1","0","NA","NA","1","0","NA","1","NA","1","74","0","0","0","0","74","74","0","0","74","74","74","74","74","0","0","0","0","0","0","74","74","74","74","74","74","74","74","74","74","0","74","0","NA","1","NA","0","01/01/16 11:46:17","Default description","no","chinese-japanese-korean","no","18","white","開始實驗A","768","legacy","C:/Users/Evonne/Desktop/test/Compatibility/3_Data Collection/RAW/A-1.csv","xpyriment","Interactive Ising","3.0.2","no","0","z","space","space","space","space","/","space","space","z","space","1032","2329","19234","4112","8635","2222","21644","8606","1032","1775","legacy","1000","experiment","1","odd","674314","676655","NA","NA","377308","NA","NA","NA","NA","655054","766775","676644","NA","81494","NA","768596","767050","81494","NA","769596","769599","700620","752366","743993","44853","48982","57622","59849","36243","6021","770599","770602","700623","752369","744496","770603","NA","771640","353631","771740","34423","766774","676655","NA","377309","NA","5929","Hommel2002EXP01","11","11050","11","yes","1024"
"n","yes","no","rect","100","100","981","981","black","no","xpyriment","legacy","yellow","red","green","blue","legacy","0","uniform","1","1","/","1","0","NA","NA","1","0","NA","1","NA","1","75","0","0","0","0","75","75","0","0","75","75","75","75","75","0","0","0","0","0","0","75","75","75","75","75","75","75","75","75","75","0","75","0","NA","1","NA","0","01/01/16 11:46:17","Default description","no","chinese-japanese-korean","no","18","white","開始實驗A","768","legacy","C:/Users/Evonne/Desktop/test/Compatibility/3_Data Collection/RAW/A-1.csv","xpyriment","Interactive Ising","3.0.2","no","0","/","space","space","space","space","/","space","space","/","space","723","2329","19234","4112","8635","2222","21644","8606","723","1775","legacy","500","experiment","1","odd","674314","676655","NA","NA","377308","NA","NA","NA","NA","655054","775728","676644","NA","81494","NA","777492","775949","81494","NA","778492","769599","700620","752366","778495","44853","48982","57622","59849","36243","6021","778995","770602","700623","752369","778998","778999","NA","779727","353631","779828","34423","775728","676655","NA","377309","NA","5929","Hommel2002EXP01","12","11773","12","yes","1024"
"y","yes","no","circle","100","100","981","981","black","no","xpyriment","legacy","yellow","blue","red","green","legacy","0","uniform","1","1","z","1","0","NA","NA","1","0","NA","1","NA","1","76","0","0","0","0","76","76","0","0","76","76","76","76","76","0","0","0","0","0","0","76","76","76","76","76","76","76","76","76","76","0","76","0","NA","1","NA","0","01/01/16 11:46:17","Default description","no","chinese-japanese-korean","no","18","white","開始實驗A","768","legacy","C:/Users/Evonne/Desktop/test/Compatibility/3_Data Collection/RAW/A-1.csv","xpyriment","Interactive Ising","3.0.2","no","0","z","space","space","space","space","/","space","space","z","space","987","2329","19234","4112","8635","2222","21644","8606","987","1775","legacy","500","experiment","1","odd","674314","676655","NA","NA","377308","NA","NA","NA","NA","655054","783973","676644","NA","81494","NA","785670","784121","81494","NA","786671","786674","700620","752366","778495","44853","48982","57622","59849","36243","6021","787174","787177","700623","752369","778998","787178","NA","788170","353631","788270","34423","783973","676655","NA","377309","NA","5929","Hommel2002EXP01","13","12760","13","yes","1024"
"n","yes","no","rect","100","100","961","961","black","no","xpyriment","legacy","green","blue","yellow","red","legacy","0","uniform","1","1","/","1","0","NA","NA","1","0","NA","1","NA","1","77","0","0","0","0","77","77","0","0","77","77","77","77","77","0","0","0","0","0","0","77","77","77","77","77","77","77","77","77","77","0","77","0","NA","1","NA","0","01/01/16 11:46:17","Default description","no","chinese-japanese-korean","no","18","white","開始實驗A","768","legacy","C:/Users/Evonne/Desktop/test/Compatibility/3_Data Collection/RAW/A-1.csv","xpyriment","Interactive Ising","3.0.2","no","0","/","space","space","space","space","/","space","space","/","space","706","2329","19234","4112","8635","2222","21644","8606","706","1775","legacy","1000","experiment","1","odd","674314","676655","NA","NA","377308","NA","NA","NA","NA","655054","792152","676644","NA","81494","NA","793850","792301","81494","NA","794850","786674","700620","752366","794853","44853","48982","57622","59849","36243","6021","795853","787177","700623","752369","795856","795857","NA","796568","353631","796668","34423","792151","676655","NA","377309","NA","5929","Hommel2002EXP01","14","13466","14","yes","1024"
"n","yes","no","rect","100","100","957","957","black","no","xpyriment","legacy","green","yellow","red","blue","legacy","0","uniform","1","1","/","1","0","NA","NA","1","0","NA","1","NA","1","78","0","0","0","0","78","78","0","0","78","78","78","78","78","0","0","0","0","0","0","78","78","78","78","78","78","78","78","78","78","0","78","0","NA","1","NA","0","01/01/16 11:46:17","Default description","no","chinese-japanese-korean","no","18","white","開始實驗A","768","legacy","C:/Users/Evonne/Desktop/test/Compatibility/3_Data Collection/RAW/A-1.csv","xpyriment","Interactive Ising","3.0.2","no","0","/","space","space","space","space","/","space","space","/","space","889","2329","19234","4112","8635","2222","21644","8606","889","1775","legacy","1500","experiment","1","odd","674314","676655","NA","NA","377308","NA","NA","NA","NA","655054","800697","676644","NA","81494","NA","802461","800912","81494","NA","803461","786674","700620","752366","803464","44853","48982","57622","59849","36243","6021","804964","787177","700623","752369","804967","804968","NA","805862","353631","805962","34423","800696","676655","NA","377309","NA","5929","Hommel2002EXP01","15","14355","15","yes","1024"
"y","yes","no","rect","100","100","948","948","black","no","xpyriment","legacy","yellow","red","green","blue","legacy","0","uniform","1","1","/","1","0","NA","NA","1","0","NA","1","NA","1","79","0","0","0","0","79","79","0","0","79","79","79","79","79","0","0","0","0","0","0","79","79","79","79","79","79","79","79","79","79","0","79","0","NA","1","NA","0","01/01/16 11:46:17","Default description","no","chinese-japanese-korean","no","18","white","開始實驗A","768","legacy","C:/Users/Evonne/Desktop/test/Compatibility/3_Data Collection/RAW/A-1.csv","xpyriment","Interactive Ising","3.0.2","no","0","/","space","space","space","space","/","space","space","/","space","818","2329","19234","4112","8635","2222","21644","8606","818","1775","legacy","1500","experiment","1","odd","674314","676655","NA","NA","377308","NA","NA","NA","NA","655054","810120","676644","NA","81494","NA","812079","810576","81494","NA","813080","786674","700620","813083","803464","44853","48982","57622","59849","36243","6021","814583","787177","700623","814586","804967","814587","NA","815411","353631","815511","34423","810119","676655","NA","377309","NA","5929","Hommel2002EXP01","16","15173","16","yes","1024"
"y","yes","no","circle","100","100","956","956","black","no","xpyriment","legacy","yellow","red","green","blue","legacy","0","uniform","1","1","z","1","0","NA","NA","1","0","NA","1","NA","1","80","0","0","0","0","80","80","0","0","80","80","80","80","80","0","0","0","0","0","0","80","80","80","80","80","80","80","80","80","80","0","80","0","NA","1","NA","0","01/01/16 11:46:17","Default description","no","chinese-japanese-korean","no","18","white","開始實驗A","768","legacy","C:/Users/Evonne/Desktop/test/Compatibility/3_Data Collection/RAW/A-1.csv","xpyriment","Interactive Ising","3.0.2","no","0","z","space","space","space","space","/","space","space","z","space","1087","2329","19234","4112","8635","2222","21644","8606","1087","1775","legacy","1500","experiment","1","odd","674314","676655","NA","NA","377308","NA","NA","NA","NA","655054","819365","676644","NA","81494","NA","821048","819501","81494","NA","822048","822051","700620","813083","803464","44853","48982","57622","59849","36243","6021","823551","823554","700623","814586","804967","823555","NA","824647","353631","824747","34423","819364","676655","NA","377309","NA","5929","Hommel2002EXP01","17","16260","17","yes","1024"
"y","yes","no","circle","100","100","964","964","black","no","xpyriment","legacy","yellow","red","blue","green","legacy","0","uniform","1","1","z","1","0","NA","NA","1","0","NA","1","NA","1","81","0","0","0","0","81","81","0","0","81","81","81","81","81","0","0","0","0","0","0","81","81","81","81","81","81","81","81","81","81","0","81","0","NA","1","NA","0","01/01/16 11:46:17","Default description","no","chinese-japanese-korean","no","18","white","開始實驗A","768","legacy","C:/Users/Evonne/Desktop/test/Compatibility/3_Data Collection/RAW/A-1.csv","xpyriment","Interactive Ising","3.0.2","no","0","z","space","space","space","space","/","space","space","z","space","1106","2329","19234","4112","8635","2222","21644","8606","1106","1775","legacy","0","experiment","1","odd","674314","676655","NA","NA","377308","NA","NA","NA","NA","655054","828601","676644","NA","81494","NA","830393","828850","81494","NA","831394","831397","700620","813083","803464","44853","48982","57622","59849","36243","6021","831397","831400","700623","814586","804967","831401","NA","832512","353631","832613","34423","828601","676655","NA","377309","NA","5929","Hommel2002EXP01","18","17366","18","yes","1024"
