"Compatibility","EXPA","EXPB","Shape","acc","accuracy","average_response_time","avg_rt","background","bidi","canvas_backend","clock_backend","color1","color2","color3","color4","color_backend","compensation","coordinates","correct","correct_Target_response","correct_response","count_Block_Break","count_Block_EXPERIMENT_A","count_Block_EXPERIMENT_B","count_Block_Parctice_B","count_Block_Practice_A","count_Block_reset_EXPERIMENT_A","count_Block_reset_EXPERIMENT_B","count_Block_reset_Practice_A","count_Block_reset_Practice_B","count_Break","count_Decide_Color","count_EXPERIMENT_A","count_EXPERIMENT_B","count_EXP_A","count_EXP_B","count_Initial","count_Intertrial","count_Practice_A","count_Practice_B","count_Prepare","count_Prepare_circle_compatible","count_Prepare_circle_incompatible","count_Prepare_rect_compatible","count_Prepare_rect_incompatible","count_Procedure_Ins01","count_Procedure_Ins02","count_Procedure_Ins03","count_Ready","count_Response_Ins","count_Select_Experiment","count_Target","count_Target_circle_compatible","count_Target_circle_incompatible","count_Target_rect_compatible","count_Target_rect_incompatible","count_Target_response","count_Target_response_BadResponse","count_Target_response_Correct","count_Target_response_Wrong","count_Target_response_logger","count_Title","count_Trial","count_Trial_EXPERIMENT_A","count_Trial_EXPERIMENT_B","count_Trial_Practice_A","count_Trial_Practice_B","count_experiment","datetime","description","font_bold","font_family","font_italic","font_size","foreground","form_response","height","keyboard_backend","logfile","mouse_backend","opensesame_codename","opensesame_version","practice","repeat_cycle","response","response_Block_Break","response_Break","response_Procedure_Ins01","response_Procedure_Ins02","response_Procedure_Ins03","response_Ready","response_Response_Ins","response_Target_response","response_Title","response_time","response_time_Block_Break","response_time_Break","response_time_Procedure_Ins01","response_time_Procedure_Ins02","response_time_Procedure_Ins03","response_time_Ready","response_time_Response_Ins","response_time_Target_response","response_time_Title","sampler_backend","soa","start","subject_nr","subject_parity","time_Block_Break","time_Block_EXPERIMENT_A","time_Block_EXPERIMENT_B","time_Block_Parctice_B","time_Block_Practice_A","time_Block_reset_EXPERIMENT_A","time_Block_reset_EXPERIMENT_B","time_Block_reset_Practice_A","time_Block_reset_Practice_B","time_Break","time_Decide_Color","time_EXPERIMENT_A","time_EXPERIMENT_B","time_EXP_A","time_EXP_B","time_Initial","time_Intertrial","time_Practice_A","time_Practice_B","time_Prepare","time_Prepare_circle_compatible","time_Prepare_circle_incompatible","time_Prepare_rect_compatible","time_Prepare_rect_incompatible","time_Procedure_Ins01","time_Procedure_Ins02","time_Procedure_Ins03","time_Ready","time_Response_Ins","time_Select_Experiment","time_Target","time_Target_circle_compatible","time_Target_circle_incompatible","time_Target_rect_compatible","time_Target_rect_incompatible","time_Target_response","time_Target_response_BadResponse","time_Target_response_Correct","time_Target_response_Wrong","time_Target_response_logger","time_Title","time_Trial","time_Trial_EXPERIMENT_A","time_Trial_EXPERIMENT_B","time_Trial_Practice_A","time_Trial_Practice_B","time_experiment","title","total_correct","total_response_time","total_responses","uniform_coordinates","width"
"y","yes","no","rect","0","0","756","756","black","no","xpyriment","legacy","blue","red","yellow","green","legacy","0","uniform","0","0","/","1","NA","NA","NA","0","NA","NA","0","NA","NA","0","0","0","0","0","0","0","0","0","0","0","0","0","0","0","0","0","0","0","0","0","0","0","0","0","0","0","0","0","0","0","0","NA","NA","0","NA","0","01/02/16 20:06:05","Default description","no","chinese-japanese-korean","no","18","white","開始實驗A","768","legacy","C:/Users/Evonne/Desktop/test/Compatibility/3_Data Collection/RAW/A-3.csv","xpyriment","Interactive Ising","3.0.2","yes","0","z","NA","NA","space","space","/","space","/","z","space","756","NA","NA","5364","4819","1315","24654","2330","756","1740","legacy","1000","experiment","1","odd","NA","NA","NA","NA","80903","NA","NA","NA","NA","NA","84222","NA","NA","80892","NA","86058","84512","80892","NA","87058","NA","NA","87061","NA","44715","50095","54918","56237","42381","7506","88061","NA","NA","88064","NA","88064","NA","NA","88825","88925","40605","84221","NA","NA","80904","NA","7359","Hommel2002EXP01","0","756","1","yes","1024"
"y","yes","no","rect","50","50","848","848","black","no","xpyriment","legacy","green","red","yellow","blue","legacy","0","uniform","1","1","/","1","NA","NA","NA","0","NA","NA","0","NA","NA","1","0","0","0","0","1","1","0","0","1","1","1","1","1","0","0","0","0","0","0","1","1","1","1","1","1","1","1","1","1","0","1","NA","NA","0","NA","0","01/02/16 20:06:05","Default description","no","chinese-japanese-korean","no","18","white","開始實驗A","768","legacy","C:/Users/Evonne/Desktop/test/Compatibility/3_Data Collection/RAW/A-3.csv","xpyriment","Interactive Ising","3.0.2","yes","0","/","NA","NA","space","space","/","space","/","/","space","941","NA","NA","5364","4819","1315","24654","2330","941","1740","legacy","500","experiment","1","odd","NA","NA","NA","NA","80903","NA","NA","NA","NA","NA","92893","NA","NA","80892","NA","94727","93187","80892","NA","95728","NA","NA","95731","NA","44715","50095","54918","56237","42381","7506","96231","NA","NA","96234","NA","96234","NA","97180","88825","97281","40605","92891","NA","NA","80904","NA","7359","Hommel2002EXP01","1","1697","2","yes","1024"
"n","yes","no","rect","66.6666666667","66.6666666667","964","964","black","no","xpyriment","legacy","yellow","green","blue","red","legacy","0","uniform","1","1","/","1","NA","NA","NA","0","NA","NA","0","NA","NA","2","0","0","0","0","2","2","0","0","2","2","2","2","2","0","0","0","0","0","0","2","2","2","2","2","2","2","2","2","2","0","2","NA","NA","0","NA","0","01/02/16 20:06:05","Default description","no","chinese-japanese-korean","no","18","white","開始實驗A","768","legacy","C:/Users/Evonne/Desktop/test/Compatibility/3_Data Collection/RAW/A-3.csv","xpyriment","Interactive Ising","3.0.2","yes","0","/","NA","NA","space","space","/","space","/","/","space","1196","NA","NA","5364","4819","1315","24654","2330","1196","1740","legacy","0","experiment","1","odd","NA","NA","NA","NA","80903","NA","NA","NA","NA","NA","101104","NA","NA","80892","NA","102938","101392","80892","NA","103938","NA","NA","95731","103941","44715","50095","54918","56237","42381","7506","103942","NA","NA","96234","103945","103945","NA","105146","88825","105246","40605","101103","NA","NA","80904","NA","7359","Hommel2002EXP01","2","2893","3","yes","1024"
"y","yes","no","circle","75","75","964","964","black","no","xpyriment","legacy","yellow","red","green","blue","legacy","0","uniform","1","1","z","1","NA","NA","NA","0","NA","NA","0","NA","NA","3","0","0","0","0","3","3","0","0","3","3","3","3","3","0","0","0","0","0","0","3","3","3","3","3","3","3","3","3","3","0","3","NA","NA","0","NA","0","01/02/16 20:06:05","Default description","no","chinese-japanese-korean","no","18","white","開始實驗A","768","legacy","C:/Users/Evonne/Desktop/test/Compatibility/3_Data Collection/RAW/A-3.csv","xpyriment","Interactive Ising","3.0.2","yes","0","z","NA","NA","space","space","/","space","/","z","space","965","NA","NA","5364","4819","1315","24654","2330","965","1740","legacy","1500","experiment","1","odd","NA","NA","NA","NA","80903","NA","NA","NA","NA","NA","109281","NA","NA","80892","NA","111137","109635","80892","NA","112138","112142","NA","95731","103941","44715","50095","54918","56237","42381","7506","113642","113645","NA","96234","103945","113646","NA","114616","88825","114716","40605","109280","NA","NA","80904","NA","7359","Hommel2002EXP01","3","3858","4","yes","1024"
"n","yes","no","rect","80","80","925","925","black","no","xpyriment","legacy","red","blue","green","yellow","legacy","0","uniform","1","1","/","1","NA","NA","NA","0","NA","NA","0","NA","NA","4","0","0","0","0","4","4","0","0","4","4","4","4","4","0","0","0","0","0","0","4","4","4","4","4","4","4","4","4","4","0","4","NA","NA","0","NA","0","01/02/16 20:06:05","Default description","no","chinese-japanese-korean","no","18","white","開始實驗A","768","legacy","C:/Users/Evonne/Desktop/test/Compatibility/3_Data Collection/RAW/A-3.csv","xpyriment","Interactive Ising","3.0.2","yes","0","/","NA","NA","space","space","/","space","/","/","space","769","NA","NA","5364","4819","1315","24654","2330","769","1740","legacy","1500","experiment","1","odd","NA","NA","NA","NA","80903","NA","NA","NA","NA","NA","118293","NA","NA","80892","NA","120126","118583","80892","NA","121126","112142","NA","95731","121130","44715","50095","54918","56237","42381","7506","122630","113645","NA","96234","122633","122634","NA","123408","88825","123508","40605","118292","NA","NA","80904","NA","7359","Hommel2002EXP01","4","4627","5","yes","1024"
"y","yes","no","rect","83.3333333333","83.3333333333","1020","1020","black","no","xpyriment","legacy","red","blue","yellow","green","legacy","0","uniform","1","1","/","1","NA","NA","NA","0","NA","NA","0","NA","NA","5","0","0","0","0","5","5","0","0","5","5","5","5","5","0","0","0","0","0","0","5","5","5","5","5","5","5","5","5","5","0","5","NA","NA","0","NA","0","01/02/16 20:06:05","Default description","no","chinese-japanese-korean","no","18","white","開始實驗A","768","legacy","C:/Users/Evonne/Desktop/test/Compatibility/3_Data Collection/RAW/A-3.csv","xpyriment","Interactive Ising","3.0.2","yes","0","/","NA","NA","space","space","/","space","/","/","space","1497","NA","NA","5364","4819","1315","24654","2330","1497","1740","legacy","0","experiment","1","odd","NA","NA","NA","NA","80903","NA","NA","NA","NA","NA","127204","NA","NA","80892","NA","129019","127479","80892","NA","130019","112142","NA","130022","121130","44715","50095","54918","56237","42381","7506","130022","113645","NA","130026","122633","130026","NA","131528","88825","131628","40605","127204","NA","NA","80904","NA","7359","Hommel2002EXP01","5","6124","6","yes","1024"
"y","yes","no","circle","85.7142857143","85.7142857143","1002","1002","black","no","xpyriment","legacy","green","red","yellow","blue","legacy","0","uniform","1","1","z","1","NA","NA","NA","0","NA","NA","0","NA","NA","6","0","0","0","0","6","6","0","0","6","6","6","6","6","0","0","0","0","0","0","6","6","6","6","6","6","6","6","6","6","0","6","NA","NA","0","NA","0","01/02/16 20:06:05","Default description","no","chinese-japanese-korean","no","18","white","開始實驗A","768","legacy","C:/Users/Evonne/Desktop/test/Compatibility/3_Data Collection/RAW/A-3.csv","xpyriment","Interactive Ising","3.0.2","yes","0","z","NA","NA","space","space","/","space","/","z","space","896","NA","NA","5364","4819","1315","24654","2330","896","1740","legacy","1500","experiment","1","odd","NA","NA","NA","NA","80903","NA","NA","NA","NA","NA","135432","NA","NA","80892","NA","137257","135710","80892","NA","138258","138261","NA","130022","121130","44715","50095","54918","56237","42381","7506","139761","139765","NA","130026","122633","139765","NA","140666","88825","140766","40605","135431","NA","NA","80904","NA","7359","Hommel2002EXP01","6","7020","7","yes","1024"
"n","yes","no","rect","87.5","87.5","983","983","black","no","xpyriment","legacy","blue","yellow","red","green","legacy","0","uniform","1","1","/","1","NA","NA","NA","0","NA","NA","0","NA","NA","7","0","0","0","0","7","7","0","0","7","7","7","7","7","0","0","0","0","0","0","7","7","7","7","7","7","7","7","7","7","0","7","NA","NA","0","NA","0","01/02/16 20:06:05","Default description","no","chinese-japanese-korean","no","18","white","開始實驗A","768","legacy","C:/Users/Evonne/Desktop/test/Compatibility/3_Data Collection/RAW/A-3.csv","xpyriment","Interactive Ising","3.0.2","yes","0","/","NA","NA","space","space","/","space","/","/","space","848","NA","NA","5364","4819","1315","24654","2330","848","1740","legacy","1500","experiment","1","odd","NA","NA","NA","NA","80903","NA","NA","NA","NA","NA","144695","NA","NA","80892","NA","146534","144995","80892","NA","147534","138261","NA","130022","147537","44715","50095","54918","56237","42381","7506","149037","139765","NA","130026","149041","149041","NA","149894","88825","149994","40605","144694","NA","NA","80904","NA","7359","Hommel2002EXP01","7","7868","8","yes","1024"
"n","yes","no","rect","88.8888888889","88.8888888889","956","956","black","no","xpyriment","legacy","yellow","blue","green","red","legacy","0","uniform","1","1","/","1","NA","NA","NA","0","NA","NA","0","NA","NA","8","0","0","0","0","8","8","0","0","8","8","8","8","8","0","0","0","0","0","0","8","8","8","8","8","8","8","8","8","8","0","8","NA","NA","0","NA","0","01/02/16 20:06:05","Default description","no","chinese-japanese-korean","no","18","white","開始實驗A","768","legacy","C:/Users/Evonne/Desktop/test/Compatibility/3_Data Collection/RAW/A-3.csv","xpyriment","Interactive Ising","3.0.2","yes","0","/","NA","NA","space","space","/","space","/","/","space","740","NA","NA","5364","4819","1315","24654","2330","740","1740","legacy","500","experiment","1","odd","NA","NA","NA","NA","80903","NA","NA","NA","NA","NA","153973","NA","NA","80892","NA","155799","154255","80892","NA","156800","138261","NA","130022","156803","44715","50095","54918","56237","42381","7506","157303","139765","NA","130026","157306","157306","NA","158051","88825","158152","40605","153972","NA","NA","80904","NA","7359","Hommel2002EXP01","8","8608","9","yes","1024"
"y","yes","no","rect","90","90","967","967","black","no","xpyriment","legacy","red","blue","yellow","green","legacy","0","uniform","1","1","/","1","NA","NA","NA","0","NA","NA","0","NA","NA","9","0","0","0","0","9","9","0","0","9","9","9","9","9","0","0","0","0","0","0","9","9","9","9","9","9","9","9","9","9","0","9","NA","NA","0","NA","0","01/02/16 20:06:05","Default description","no","chinese-japanese-korean","no","18","white","開始實驗A","768","legacy","C:/Users/Evonne/Desktop/test/Compatibility/3_Data Collection/RAW/A-3.csv","xpyriment","Interactive Ising","3.0.2","yes","0","/","NA","NA","space","space","/","space","/","/","space","1067","NA","NA","5364","4819","1315","24654","2330","1067","1740","legacy","1500","experiment","1","odd","NA","NA","NA","NA","80903","NA","NA","NA","NA","NA","162062","NA","NA","80892","NA","163909","162355","80892","NA","164909","138261","NA","164912","156803","44715","50095","54918","56237","42381","7506","166412","139765","NA","166634","157306","166634","NA","167706","88825","167806","40605","162062","NA","NA","80904","NA","7359","Hommel2002EXP01","9","9675","10","yes","1024"
"n","yes","no","circle","90.9090909091","90.9090909091","994","994","black","no","xpyriment","legacy","yellow","blue","green","red","legacy","0","uniform","1","1","z","1","NA","NA","NA","0","NA","NA","0","NA","NA","10","0","0","0","0","10","10","0","0","10","10","10","10","10","0","0","0","0","0","0","10","10","10","10","10","10","10","10","10","10","0","10","NA","NA","0","NA","0","01/02/16 20:06:05","Default description","no","chinese-japanese-korean","no","18","white","開始實驗A","768","legacy","C:/Users/Evonne/Desktop/test/Compatibility/3_Data Collection/RAW/A-3.csv","xpyriment","Interactive Ising","3.0.2","yes","0","z","NA","NA","space","space","/","space","/","z","space","1268","NA","NA","5364","4819","1315","24654","2330","1268","1740","legacy","0","experiment","1","odd","NA","NA","NA","NA","80903","NA","NA","NA","NA","NA","171152","NA","NA","80892","NA","172857","171312","80892","NA","173857","138261","173860","164912","156803","44715","50095","54918","56237","42381","7506","173860","139765","173863","166634","157306","173864","NA","175137","88825","175237","40605","171151","NA","NA","80904","NA","7359","Hommel2002EXP01","10","10943","11","yes","1024"
"n","yes","no","circle","91.6666666667","91.6666666667","973","973","black","no","xpyriment","legacy","red","green","blue","yellow","legacy","0","uniform","1","1","z","1","NA","NA","NA","0","NA","NA","0","NA","NA","11","0","0","0","0","11","11","0","0","11","11","11","11","11","0","0","0","0","0","0","11","11","11","11","11","11","11","11","11","11","0","11","NA","NA","0","NA","0","01/02/16 20:06:05","Default description","no","chinese-japanese-korean","no","18","white","開始實驗A","768","legacy","C:/Users/Evonne/Desktop/test/Compatibility/3_Data Collection/RAW/A-3.csv","xpyriment","Interactive Ising","3.0.2","yes","0","z","NA","NA","space","space","/","space","/","z","space","739","NA","NA","5364","4819","1315","24654","2330","739","1740","legacy","1500","experiment","1","odd","NA","NA","NA","NA","80903","NA","NA","NA","NA","NA","179330","NA","NA","80892","NA","181109","179570","80892","NA","182110","138261","182113","164912","156803","44715","50095","54918","56237","42381","7506","183613","139765","183617","166634","157306","183617","NA","184362","88825","184462","40605","179330","NA","NA","80904","NA","7359","Hommel2002EXP01","11","11682","12","yes","1024"
"n","yes","no","rect","92.3076923077","92.3076923077","968","968","black","no","xpyriment","legacy","green","yellow","blue","red","legacy","0","uniform","1","1","/","1","NA","NA","NA","0","NA","NA","0","NA","NA","12","0","0","0","0","12","12","0","0","12","12","12","12","12","0","0","0","0","0","0","12","12","12","12","12","12","12","12","12","12","0","12","NA","NA","0","NA","0","01/02/16 20:06:05","Default description","no","chinese-japanese-korean","no","18","white","開始實驗A","768","legacy","C:/Users/Evonne/Desktop/test/Compatibility/3_Data Collection/RAW/A-3.csv","xpyriment","Interactive Ising","3.0.2","yes","0","/","NA","NA","space","space","/","space","/","/","space","912","NA","NA","5364","4819","1315","24654","2330","912","1740","legacy","1000","experiment","1","odd","NA","NA","NA","NA","80903","NA","NA","NA","NA","NA","188309","NA","NA","80892","NA","190124","188579","80892","NA","191124","138261","182113","164912","191127","44715","50095","54918","56237","42381","7506","192127","139765","183617","166634","192131","192131","NA","193048","88825","193148","40605","188308","NA","NA","80904","NA","7359","Hommel2002EXP01","12","12594","13","yes","1024"
"n","yes","no","circle","92.8571428571","92.8571428571","991","991","black","no","xpyriment","legacy","green","red","yellow","blue","legacy","0","uniform","1","1","z","1","NA","NA","NA","0","NA","NA","0","NA","NA","13","0","0","0","0","13","13","0","0","13","13","13","13","13","0","0","0","0","0","0","13","13","13","13","13","13","13","13","13","13","0","13","NA","NA","0","NA","0","01/02/16 20:06:05","Default description","no","chinese-japanese-korean","no","18","white","開始實驗A","768","legacy","C:/Users/Evonne/Desktop/test/Compatibility/3_Data Collection/RAW/A-3.csv","xpyriment","Interactive Ising","3.0.2","yes","0","z","NA","NA","space","space","/","space","/","z","space","1281","NA","NA","5364","4819","1315","24654","2330","1281","1740","legacy","500","experiment","1","odd","NA","NA","NA","NA","80903","NA","NA","NA","NA","NA","196838","NA","NA","80892","NA","198667","197122","80892","NA","199667","138261","199670","164912","191127","44715","50095","54918","56237","42381","7506","200170","139765","200173","166634","192131","200174","NA","201460","88825","201561","40605","196837","NA","NA","80904","NA","7359","Hommel2002EXP01","13","13875","14","yes","1024"
"y","yes","no","circle","93.3333333333","93.3333333333","993","993","black","no","xpyriment","legacy","blue","yellow","red","green","legacy","0","uniform","1","1","z","1","NA","NA","NA","0","NA","NA","0","NA","NA","14","0","0","0","0","14","14","0","0","14","14","14","14","14","0","0","0","0","0","0","14","14","14","14","14","14","14","14","14","14","0","14","NA","NA","0","NA","0","01/02/16 20:06:05","Default description","no","chinese-japanese-korean","no","18","white","開始實驗A","768","legacy","C:/Users/Evonne/Desktop/test/Compatibility/3_Data Collection/RAW/A-3.csv","xpyriment","Interactive Ising","3.0.2","yes","0","z","NA","NA","space","space","/","space","/","z","space","1025","NA","NA","5364","4819","1315","24654","2330","1025","1740","legacy","500","experiment","1","odd","NA","NA","NA","NA","80903","NA","NA","NA","NA","NA","205344","NA","NA","80892","NA","207174","205631","80892","NA","208174","208177","199670","164912","191127","44715","50095","54918","56237","42381","7506","208677","208680","200173","166634","192131","208681","NA","209711","88825","209811","40605","205343","NA","NA","80904","NA","7359","Hommel2002EXP01","14","14900","15","yes","1024"
"y","yes","no","rect","93.75","93.75","999","999","black","no","xpyriment","legacy","blue","green","red","yellow","legacy","0","uniform","1","1","/","1","NA","NA","NA","0","NA","NA","0","NA","NA","15","0","0","0","0","15","15","0","0","15","15","15","15","15","0","0","0","0","0","0","15","15","15","15","15","15","15","15","15","15","0","15","NA","NA","0","NA","0","01/02/16 20:06:05","Default description","no","chinese-japanese-korean","no","18","white","開始實驗A","768","legacy","C:/Users/Evonne/Desktop/test/Compatibility/3_Data Collection/RAW/A-3.csv","xpyriment","Interactive Ising","3.0.2","yes","0","/","NA","NA","space","space","/","space","/","/","space","1097","NA","NA","5364","4819","1315","24654","2330","1097","1740","legacy","1500","experiment","1","odd","NA","NA","NA","NA","80903","NA","NA","NA","NA","NA","213599","NA","NA","80892","NA","215429","213883","80892","NA","216429","208177","199670","216432","191127","44715","50095","54918","56237","42381","7506","217933","208680","200173","217936","192131","217936","NA","219038","88825","219138","40605","213598","NA","NA","80904","NA","7359","Hommel2002EXP01","15","15997","16","yes","1024"
"y","yes","no","circle","94.1176470588","94.1176470588","1050","1050","black","no","xpyriment","legacy","green","blue","yellow","red","legacy","0","uniform","1","1","z","1","NA","NA","NA","0","NA","NA","0","NA","NA","16","0","0","0","0","16","16","0","0","16","16","16","16","16","0","0","0","0","0","0","16","16","16","16","16","16","16","16","16","16","0","16","NA","NA","0","NA","0","01/02/16 20:06:05","Default description","no","chinese-japanese-korean","no","18","white","開始實驗A","768","legacy","C:/Users/Evonne/Desktop/test/Compatibility/3_Data Collection/RAW/A-3.csv","xpyriment","Interactive Ising","3.0.2","yes","0","z","NA","NA","space","space","/","space","/","z","space","1862","NA","NA","5364","4819","1315","24654","2330","1862","1740","legacy","0","experiment","1","odd","NA","NA","NA","NA","80903","NA","NA","NA","NA","NA","223201","NA","NA","80892","NA","225142","223640","80892","NA","226143","226146","199670","216432","191127","44715","50095","54918","56237","42381","7506","226146","226149","200173","217936","192131","226150","NA","228017","88825","228118","40605","223200","NA","NA","80904","NA","7359","Hommel2002EXP01","16","17859","17","yes","1024"
"n","yes","no","rect","94.4444444444","94.4444444444","1056","1056","black","no","xpyriment","legacy","green","blue","yellow","red","legacy","0","uniform","1","1","/","1","NA","NA","NA","0","NA","NA","0","NA","NA","17","0","0","0","0","17","17","0","0","17","17","17","17","17","0","0","0","0","0","0","17","17","17","17","17","17","17","17","17","17","0","17","NA","NA","0","NA","0","01/02/16 20:06:05","Default description","no","chinese-japanese-korean","no","18","white","開始實驗A","768","legacy","C:/Users/Evonne/Desktop/test/Compatibility/3_Data Collection/RAW/A-3.csv","xpyriment","Interactive Ising","3.0.2","yes","0","/","NA","NA","space","space","/","space","/","/","space","1163","NA","NA","5364","4819","1315","24654","2330","1163","1740","legacy","0","experiment","1","odd","NA","NA","NA","NA","80903","NA","NA","NA","NA","NA","231579","NA","NA","80892","NA","233291","231739","80892","NA","234292","226146","199670","216432","234295","44715","50095","54918","56237","42381","7506","234296","226149","200173","217936","234300","234300","NA","235470","88825","235570","40605","231578","NA","NA","80904","NA","7359","Hommel2002EXP01","17","19022","18","yes","1024"
"n","yes","no","circle","94.7368421053","94.7368421053","1049","1049","black","no","xpyriment","legacy","red","blue","green","yellow","legacy","0","uniform","1","1","z","1","NA","NA","NA","0","NA","NA","0","NA","NA","18","0","0","0","0","18","18","0","0","18","18","18","18","18","0","0","0","0","0","0","18","18","18","18","18","18","18","18","18","18","0","18","NA","NA","0","NA","0","01/02/16 20:06:05","Default description","no","chinese-japanese-korean","no","18","white","開始實驗A","768","legacy","C:/Users/Evonne/Desktop/test/Compatibility/3_Data Collection/RAW/A-3.csv","xpyriment","Interactive Ising","3.0.2","yes","0","z","NA","NA","space","space","/","space","/","z","space","912","NA","NA","5364","4819","1315","24654","2330","912","1740","legacy","500","experiment","1","odd","NA","NA","NA","NA","80903","NA","NA","NA","NA","NA","240090","NA","NA","80892","NA","241770","240230","80892","NA","242770","226146","242773","216432","234295","44715","50095","54918","56237","42381","7506","243273","226149","243276","217936","234300","243277","NA","244194","88825","244294","40605","240089","NA","NA","80904","NA","7359","Hommel2002EXP01","18","19934","19","yes","1024"
"y","yes","no","circle","95","95","1036","1036","black","no","xpyriment","legacy","blue","green","yellow","red","legacy","0","uniform","1","1","z","1","NA","NA","NA","0","NA","NA","0","NA","NA","19","0","0","0","0","19","19","0","0","19","19","19","19","19","0","0","0","0","0","0","19","19","19","19","19","19","19","19","19","19","0","19","NA","NA","0","NA","0","01/02/16 20:06:05","Default description","no","chinese-japanese-korean","no","18","white","開始實驗A","768","legacy","C:/Users/Evonne/Desktop/test/Compatibility/3_Data Collection/RAW/A-3.csv","xpyriment","Interactive Ising","3.0.2","yes","0","z","NA","NA","space","space","/","space","/","z","space","794","NA","NA","5364","4819","1315","24654","2330","794","1740","legacy","500","experiment","1","odd","NA","NA","NA","NA","80903","NA","NA","NA","NA","NA","248490","NA","NA","80892","NA","250180","248632","80892","NA","251180","251184","242773","216432","234295","44715","50095","54918","56237","42381","7506","251684","251688","243276","217936","234300","251689","NA","252489","88825","252590","40605","248490","NA","NA","80904","NA","7359","Hommel2002EXP01","19","20728","20","yes","1024"
"n","yes","no","circle","95.2380952381","95.2380952381","1027","1027","black","no","xpyriment","legacy","yellow","blue","green","red","legacy","0","uniform","1","1","z","1","NA","NA","NA","0","NA","NA","0","NA","NA","20","0","0","0","0","20","20","0","0","20","20","20","20","20","0","0","0","0","0","0","20","20","20","20","20","20","20","20","20","20","0","20","NA","NA","0","NA","0","01/02/16 20:06:05","Default description","no","chinese-japanese-korean","no","18","white","開始實驗A","768","legacy","C:/Users/Evonne/Desktop/test/Compatibility/3_Data Collection/RAW/A-3.csv","xpyriment","Interactive Ising","3.0.2","yes","0","z","NA","NA","space","space","/","space","/","z","space","855","NA","NA","5364","4819","1315","24654","2330","855","1740","legacy","1000","experiment","1","odd","NA","NA","NA","NA","80903","NA","NA","NA","NA","NA","256736","NA","NA","80892","NA","258416","256881","80892","NA","259417","251184","259420","216432","234295","44715","50095","54918","56237","42381","7506","260421","251688","260424","217936","234300","260425","NA","261285","88825","261386","40605","256736","NA","NA","80904","NA","7359","Hommel2002EXP01","20","21583","21","yes","1024"
"n","yes","no","rect","95.4545454545","95.4545454545","1012","1012","black","no","xpyriment","legacy","red","green","blue","yellow","legacy","0","uniform","1","1","/","1","NA","NA","NA","0","NA","NA","0","NA","NA","21","0","0","0","0","21","21","0","0","21","21","21","21","21","0","0","0","0","0","0","21","21","21","21","21","21","21","21","21","21","0","21","NA","NA","0","NA","0","01/02/16 20:06:05","Default description","no","chinese-japanese-korean","no","18","white","開始實驗A","768","legacy","C:/Users/Evonne/Desktop/test/Compatibility/3_Data Collection/RAW/A-3.csv","xpyriment","Interactive Ising","3.0.2","yes","0","/","NA","NA","space","space","/","space","/","/","space","694","NA","NA","5364","4819","1315","24654","2330","694","1740","legacy","500","experiment","1","odd","NA","NA","NA","NA","80903","NA","NA","NA","NA","NA","265291","NA","NA","80892","NA","267024","265479","80892","NA","268025","251184","259420","216432","268028","44715","50095","54918","56237","42381","7506","268528","251688","260424","217936","268531","268532","NA","269231","88825","269331","40605","265291","NA","NA","80904","NA","7359","Hommel2002EXP01","21","22277","22","yes","1024"
"y","yes","no","rect","95.652173913","95.652173913","1009","1009","black","no","xpyriment","legacy","yellow","green","blue","red","legacy","0","uniform","1","1","/","1","NA","NA","NA","0","NA","NA","0","NA","NA","22","0","0","0","0","22","22","0","0","22","22","22","22","22","0","0","0","0","0","0","22","22","22","22","22","22","22","22","22","22","0","22","NA","NA","0","NA","0","01/02/16 20:06:05","Default description","no","chinese-japanese-korean","no","18","white","開始實驗A","768","legacy","C:/Users/Evonne/Desktop/test/Compatibility/3_Data Collection/RAW/A-3.csv","xpyriment","Interactive Ising","3.0.2","yes","0","/","NA","NA","space","space","/","space","/","/","space","950","NA","NA","5364","4819","1315","24654","2330","950","1740","legacy","1000","experiment","1","odd","NA","NA","NA","NA","80903","NA","NA","NA","NA","NA","273492","NA","NA","80892","NA","275412","273910","80892","NA","276413","251184","259420","276416","268028","44715","50095","54918","56237","42381","7506","277416","251688","260424","277419","268531","277420","NA","278375","88825","278475","40605","273491","NA","NA","80904","NA","7359","Hommel2002EXP01","22","23227","23","yes","1024"
"y","yes","no","rect","91.6666666667","91.6666666667","1016","1016","black","no","xpyriment","legacy","blue","yellow","red","green","legacy","0","uniform","0","0","/","1","NA","NA","NA","0","NA","NA","0","NA","NA","23","0","0","0","0","23","23","0","0","23","23","23","23","23","0","0","0","0","0","0","23","23","23","23","23","23","23","23","23","23","0","23","NA","NA","0","NA","0","01/02/16 20:06:05","Default description","no","chinese-japanese-korean","no","18","white","開始實驗A","768","legacy","C:/Users/Evonne/Desktop/test/Compatibility/3_Data Collection/RAW/A-3.csv","xpyriment","Interactive Ising","3.0.2","yes","0","z","NA","NA","space","space","/","space","/","z","space","1178","NA","NA","5364","4819","1315","24654","2330","1178","1740","legacy","0","experiment","1","odd","NA","NA","NA","NA","80903","NA","NA","NA","NA","NA","282337","NA","NA","80892","NA","284007","282470","80892","NA","285008","251184","259420","285011","268028","44715","50095","54918","56237","42381","7506","285011","251688","260424","285015","268531","285015","NA","278375","286198","286299","40605","282336","NA","NA","80904","NA","7359","Hommel2002EXP01","22","24405","24","yes","1024"
"y","yes","no","rect","92","92","1006","1006","black","no","xpyriment","legacy","yellow","blue","red","green","legacy","0","uniform","1","1","/","1","NA","NA","NA","0","NA","NA","0","NA","NA","24","0","0","0","0","24","24","0","0","24","24","24","24","24","0","0","0","0","0","0","24","24","24","24","24","24","24","24","24","24","0","24","NA","NA","0","NA","0","01/02/16 20:06:05","Default description","no","chinese-japanese-korean","no","18","white","開始實驗A","768","legacy","C:/Users/Evonne/Desktop/test/Compatibility/3_Data Collection/RAW/A-3.csv","xpyriment","Interactive Ising","3.0.2","yes","0","/","NA","NA","space","space","/","space","/","/","space","765","NA","NA","5364","4819","1315","24654","2330","765","1740","legacy","500","experiment","1","odd","NA","NA","NA","NA","80903","NA","NA","NA","NA","NA","290154","NA","NA","80892","NA","291934","290385","80892","NA","292935","251184","259420","292938","268028","44715","50095","54918","56237","42381","7506","293438","251688","260424","293441","268531","293441","NA","294211","286198","294311","40605","290153","NA","NA","80904","NA","7359","Hommel2002EXP01","23","25170","25","yes","1024"
"n","yes","no","circle","88.4615384615","88.4615384615","998","998","black","no","xpyriment","legacy","blue","red","green","yellow","legacy","0","uniform","0","0","z","1","NA","NA","NA","0","NA","NA","0","NA","NA","25","0","0","0","0","25","25","0","0","25","25","25","25","25","0","0","0","0","0","0","25","25","25","25","25","25","25","25","25","25","0","25","NA","NA","0","NA","0","01/02/16 20:06:05","Default description","no","chinese-japanese-korean","no","18","white","開始實驗A","768","legacy","C:/Users/Evonne/Desktop/test/Compatibility/3_Data Collection/RAW/A-3.csv","xpyriment","Interactive Ising","3.0.2","yes","0","/","NA","NA","space","space","/","space","/","/","space","792","NA","NA","5364","4819","1315","24654","2330","792","1740","legacy","1000","experiment","1","odd","NA","NA","NA","NA","80903","NA","NA","NA","NA","NA","298382","NA","NA","80892","NA","300083","298538","80892","NA","301083","251184","301086","292938","268028","44715","50095","54918","56237","42381","7506","302086","251688","302089","293441","268531","302090","NA","294211","302888","302988","40605","298382","NA","NA","80904","NA","7359","Hommel2002EXP01","23","25962","26","yes","1024"
"n","yes","no","rect","88.8888888889","88.8888888889","992","992","black","no","xpyriment","legacy","blue","green","red","yellow","legacy","0","uniform","1","1","/","1","NA","NA","NA","0","NA","NA","0","NA","NA","26","0","0","0","0","26","26","0","0","26","26","26","26","26","0","0","0","0","0","0","26","26","26","26","26","26","26","26","26","26","0","26","NA","NA","0","NA","0","01/02/16 20:06:05","Default description","no","chinese-japanese-korean","no","18","white","開始實驗A","768","legacy","C:/Users/Evonne/Desktop/test/Compatibility/3_Data Collection/RAW/A-3.csv","xpyriment","Interactive Ising","3.0.2","yes","0","/","NA","NA","space","space","/","space","/","/","space","837","NA","NA","5364","4819","1315","24654","2330","837","1740","legacy","1000","experiment","1","odd","NA","NA","NA","NA","80903","NA","NA","NA","NA","NA","307163","NA","NA","80892","NA","308883","307337","80892","NA","309884","251184","301086","292938","309887","44715","50095","54918","56237","42381","7506","310887","251688","302089","293441","310890","310891","NA","311733","302888","311834","40605","307162","NA","NA","80904","NA","7359","Hommel2002EXP01","24","26799","27","yes","1024"
"y","yes","no","circle","89.2857142857","89.2857142857","990","990","black","no","xpyriment","legacy","yellow","green","blue","red","legacy","0","uniform","1","1","z","1","NA","NA","NA","0","NA","NA","0","NA","NA","27","0","0","0","0","27","27","0","0","27","27","27","27","27","0","0","0","0","0","0","27","27","27","27","27","27","27","27","27","27","0","27","NA","NA","0","NA","0","01/02/16 20:06:05","Default description","no","chinese-japanese-korean","no","18","white","開始實驗A","768","legacy","C:/Users/Evonne/Desktop/test/Compatibility/3_Data Collection/RAW/A-3.csv","xpyriment","Interactive Ising","3.0.2","yes","0","z","NA","NA","space","space","/","space","/","z","space","926","NA","NA","5364","4819","1315","24654","2330","926","1740","legacy","1000","experiment","1","odd","NA","NA","NA","NA","80903","NA","NA","NA","NA","NA","315773","NA","NA","80892","NA","317576","316035","80892","NA","318577","318581","301086","292938","309887","44715","50095","54918","56237","42381","7506","319581","319585","302089","293441","310890","319585","NA","320517","302888","320617","40605","315773","NA","NA","80904","NA","7359","Hommel2002EXP01","25","27725","28","yes","1024"
"y","yes","no","circle","89.6551724138","89.6551724138","983","983","black","no","xpyriment","legacy","red","blue","green","yellow","legacy","0","uniform","1","1","z","1","NA","NA","NA","0","NA","NA","0","NA","NA","28","0","0","0","0","28","28","0","0","28","28","28","28","28","0","0","0","0","0","0","28","28","28","28","28","28","28","28","28","28","0","28","NA","NA","0","NA","0","01/02/16 20:06:05","Default description","no","chinese-japanese-korean","no","18","white","開始實驗A","768","legacy","C:/Users/Evonne/Desktop/test/Compatibility/3_Data Collection/RAW/A-3.csv","xpyriment","Interactive Ising","3.0.2","yes","0","z","NA","NA","space","space","/","space","/","z","space","791","NA","NA","5364","4819","1315","24654","2330","791","1740","legacy","1000","experiment","1","odd","NA","NA","NA","NA","80903","NA","NA","NA","NA","NA","324362","NA","NA","80892","NA","326165","324612","80892","NA","327165","327168","301086","292938","309887","44715","50095","54918","56237","42381","7506","328168","328171","302089","293441","310890","328172","NA","328968","302888","329069","40605","324362","NA","NA","80904","NA","7359","Hommel2002EXP01","26","28516","29","yes","1024"
"n","yes","no","circle","90","90","983","983","black","no","xpyriment","legacy","green","red","blue","yellow","legacy","0","uniform","1","1","z","1","NA","NA","NA","0","NA","NA","0","NA","NA","29","0","0","0","0","29","29","0","0","29","29","29","29","29","0","0","0","0","0","0","29","29","29","29","29","29","29","29","29","29","0","29","NA","NA","0","NA","0","01/02/16 20:06:05","Default description","no","chinese-japanese-korean","no","18","white","開始實驗A","768","legacy","C:/Users/Evonne/Desktop/test/Compatibility/3_Data Collection/RAW/A-3.csv","xpyriment","Interactive Ising","3.0.2","yes","0","z","NA","NA","space","space","/","space","/","z","space","1001","NA","NA","5364","4819","1315","24654","2330","1001","1740","legacy","1500","experiment","1","odd","NA","NA","NA","NA","80903","NA","NA","NA","NA","NA","332964","NA","NA","80892","NA","334895","333392","80892","NA","335896","327168","335899","292938","309887","44715","50095","54918","56237","42381","7506","337399","328171","337402","293441","310890","337403","NA","338409","302888","338509","40605","332963","NA","NA","80904","NA","7359","Hommel2002EXP01","27","29517","30","yes","1024"
"y","yes","no","circle","90.3225806452","90.3225806452","979","979","black","no","xpyriment","legacy","red","yellow","blue","green","legacy","0","uniform","1","1","z","1","NA","NA","NA","0","NA","NA","0","NA","NA","30","0","0","0","0","30","30","0","0","30","30","30","30","30","0","0","0","0","0","0","30","30","30","30","30","30","30","30","30","30","0","30","NA","NA","0","NA","0","01/02/16 20:06:05","Default description","no","chinese-japanese-korean","no","18","white","開始實驗A","768","legacy","C:/Users/Evonne/Desktop/test/Compatibility/3_Data Collection/RAW/A-3.csv","xpyriment","Interactive Ising","3.0.2","yes","0","z","NA","NA","space","space","/","space","/","z","space","848","NA","NA","5364","4819","1315","24654","2330","848","1740","legacy","0","experiment","1","odd","NA","NA","NA","NA","80903","NA","NA","NA","NA","NA","342430","NA","NA","80892","NA","344112","342563","80892","NA","345112","345115","335899","292938","309887","44715","50095","54918","56237","42381","7506","345116","345120","337402","293441","310890","345121","NA","345974","302888","346074","40605","342429","NA","NA","80904","NA","7359","Hommel2002EXP01","28","30365","31","yes","1024"
"n","yes","no","circle","90.625","90.625","978","978","black","no","xpyriment","legacy","green","blue","red","yellow","legacy","0","uniform","1","1","z","1","NA","NA","NA","0","NA","NA","0","NA","NA","31","0","0","0","0","31","31","0","0","31","31","31","31","31","0","0","0","0","0","0","31","31","31","31","31","31","31","31","31","31","0","31","NA","NA","0","NA","0","01/02/16 20:06:05","Default description","no","chinese-japanese-korean","no","18","white","開始實驗A","768","legacy","C:/Users/Evonne/Desktop/test/Compatibility/3_Data Collection/RAW/A-3.csv","xpyriment","Interactive Ising","3.0.2","yes","0","z","NA","NA","space","space","/","space","/","z","space","948","NA","NA","5364","4819","1315","24654","2330","948","1740","legacy","0","experiment","1","odd","NA","NA","NA","NA","80903","NA","NA","NA","NA","NA","349976","NA","NA","80892","NA","351705","350161","80892","NA","352706","345115","352709","292938","309887","44715","50095","54918","56237","42381","7506","352709","345120","352712","293441","310890","352713","NA","353666","302888","353767","40605","349975","NA","NA","80904","NA","7359","Hommel2002EXP01","29","31313","32","yes","1024"
"n","yes","no","circle","100","100","1764","1764","black","no","xpyriment","legacy","green","blue","yellow","red","legacy","0","uniform","1","1","z","1","NA","NA","NA","1","NA","NA","1","NA","0","32","0","0","0","0","32","32","0","0","32","32","32","32","32","0","0","0","0","0","0","32","32","32","32","32","32","32","32","32","32","0","32","NA","NA","1","NA","0","01/02/16 20:06:05","Default description","no","chinese-japanese-korean","no","18","white","開始實驗A","768","legacy","C:/Users/Evonne/Desktop/test/Compatibility/3_Data Collection/RAW/A-3.csv","xpyriment","Interactive Ising","3.0.2","yes","0","z","NA","space","space","space","/","space","/","z","space","1764","NA","6043","5364","4819","1315","24654","2330","1764","1740","legacy","0","experiment","1","odd","NA","NA","NA","NA","360477","NA","NA","NA","NA","354426","364767","NA","NA","80892","NA","366527","364981","80892","NA","367527","345115","367530","292938","309887","44715","50095","54918","56237","42381","7506","367530","345120","367533","293441","310890","367534","NA","369303","302888","369403","40605","364767","NA","NA","360477","NA","7359","Hommel2002EXP01","1","1764","1","yes","1024"
"y","yes","no","circle","100","100","1285","1285","black","no","xpyriment","legacy","yellow","red","green","blue","legacy","0","uniform","1","1","z","1","NA","NA","NA","1","NA","NA","1","NA","0","33","0","0","0","0","33","33","0","0","33","33","33","33","33","0","0","0","0","0","0","33","33","33","33","33","33","33","33","33","33","0","33","NA","NA","1","NA","0","01/02/16 20:06:05","Default description","no","chinese-japanese-korean","no","18","white","開始實驗A","768","legacy","C:/Users/Evonne/Desktop/test/Compatibility/3_Data Collection/RAW/A-3.csv","xpyriment","Interactive Ising","3.0.2","yes","0","z","NA","space","space","space","/","space","/","z","space","807","NA","6043","5364","4819","1315","24654","2330","807","1740","legacy","1500","experiment","1","odd","NA","NA","NA","NA","360477","NA","NA","NA","NA","354426","373345","NA","NA","80892","NA","375123","373582","80892","NA","376123","376127","367530","292938","309887","44715","50095","54918","56237","42381","7506","377627","377631","367533","293441","310890","377631","NA","378443","302888","378543","40605","373344","NA","NA","360477","NA","7359","Hommel2002EXP01","2","2571","2","yes","1024"
"n","yes","no","circle","100","100","1097","1097","black","no","xpyriment","legacy","green","blue","red","yellow","legacy","0","uniform","1","1","z","1","NA","NA","NA","1","NA","NA","1","NA","0","34","0","0","0","0","34","34","0","0","34","34","34","34","34","0","0","0","0","0","0","34","34","34","34","34","34","34","34","34","34","0","34","NA","NA","1","NA","0","01/02/16 20:06:05","Default description","no","chinese-japanese-korean","no","18","white","開始實驗A","768","legacy","C:/Users/Evonne/Desktop/test/Compatibility/3_Data Collection/RAW/A-3.csv","xpyriment","Interactive Ising","3.0.2","yes","0","z","NA","space","space","space","/","space","/","z","space","721","NA","6043","5364","4819","1315","24654","2330","721","1740","legacy","500","experiment","1","odd","NA","NA","NA","NA","360477","NA","NA","NA","NA","354426","382488","NA","NA","80892","NA","384311","382768","80892","NA","385311","376127","385314","292938","309887","44715","50095","54918","56237","42381","7506","385814","377631","385817","293441","310890","385818","NA","386544","302888","386644","40605","382488","NA","NA","360477","NA","7359","Hommel2002EXP01","3","3292","3","yes","1024"
"y","yes","no","circle","100","100","1026","1026","black","no","xpyriment","legacy","green","blue","yellow","red","legacy","0","uniform","1","1","z","1","NA","NA","NA","1","NA","NA","1","NA","0","35","0","0","0","0","35","35","0","0","35","35","35","35","35","0","0","0","0","0","0","35","35","35","35","35","35","35","35","35","35","0","35","NA","NA","1","NA","0","01/02/16 20:06:05","Default description","no","chinese-japanese-korean","no","18","white","開始實驗A","768","legacy","C:/Users/Evonne/Desktop/test/Compatibility/3_Data Collection/RAW/A-3.csv","xpyriment","Interactive Ising","3.0.2","yes","0","z","NA","space","space","space","/","space","/","z","space","814","NA","6043","5364","4819","1315","24654","2330","814","1740","legacy","500","experiment","1","odd","NA","NA","NA","NA","360477","NA","NA","NA","NA","354426","390677","NA","NA","80892","NA","392629","391126","80892","NA","393629","393633","385314","292938","309887","44715","50095","54918","56237","42381","7506","394133","394136","385817","293441","310890","394137","NA","394957","302888","395058","40605","390676","NA","NA","360477","NA","7359","Hommel2002EXP01","4","4106","4","yes","1024"
"n","yes","no","rect","100","100","980","980","black","no","xpyriment","legacy","green","red","blue","yellow","legacy","0","uniform","1","1","/","1","NA","NA","NA","1","NA","NA","1","NA","0","36","0","0","0","0","36","36","0","0","36","36","36","36","36","0","0","0","0","0","0","36","36","36","36","36","36","36","36","36","36","0","36","NA","NA","1","NA","0","01/02/16 20:06:05","Default description","no","chinese-japanese-korean","no","18","white","開始實驗A","768","legacy","C:/Users/Evonne/Desktop/test/Compatibility/3_Data Collection/RAW/A-3.csv","xpyriment","Interactive Ising","3.0.2","yes","0","/","NA","space","space","space","/","space","/","/","space","798","NA","6043","5364","4819","1315","24654","2330","798","1740","legacy","1000","experiment","1","odd","NA","NA","NA","NA","360477","NA","NA","NA","NA","354426","398911","NA","NA","80892","NA","400584","399042","80892","NA","401585","393633","385314","292938","401589","44715","50095","54918","56237","42381","7506","402589","394136","385817","293441","402592","402593","NA","403396","302888","403497","40605","398910","NA","NA","360477","NA","7359","Hommel2002EXP01","5","4904","5","yes","1024"
"y","yes","no","circle","100","100","976","976","black","no","xpyriment","legacy","blue","green","yellow","red","legacy","0","uniform","1","1","z","1","NA","NA","NA","1","NA","NA","1","NA","0","37","0","0","0","0","37","37","0","0","37","37","37","37","37","0","0","0","0","0","0","37","37","37","37","37","37","37","37","37","37","0","37","NA","NA","1","NA","0","01/02/16 20:06:05","Default description","no","chinese-japanese-korean","no","18","white","開始實驗A","768","legacy","C:/Users/Evonne/Desktop/test/Compatibility/3_Data Collection/RAW/A-3.csv","xpyriment","Interactive Ising","3.0.2","yes","0","z","NA","space","space","space","/","space","/","z","space","954","NA","6043","5364","4819","1315","24654","2330","954","1740","legacy","0","experiment","1","odd","NA","NA","NA","NA","360477","NA","NA","NA","NA","354426","407458","NA","NA","80892","NA","409213","407668","80892","NA","410213","410216","385314","292938","401589","44715","50095","54918","56237","42381","7506","410216","410219","385817","293441","402592","410220","NA","411179","302888","411279","40605","407457","NA","NA","360477","NA","7359","Hommel2002EXP01","6","5858","6","yes","1024"
"y","yes","no","circle","100","100","928","928","black","no","xpyriment","legacy","red","green","blue","yellow","legacy","0","uniform","1","1","z","1","NA","NA","NA","1","NA","NA","1","NA","0","38","0","0","0","0","38","38","0","0","38","38","38","38","38","0","0","0","0","0","0","38","38","38","38","38","38","38","38","38","38","0","38","NA","NA","1","NA","0","01/02/16 20:06:05","Default description","no","chinese-japanese-korean","no","18","white","開始實驗A","768","legacy","C:/Users/Evonne/Desktop/test/Compatibility/3_Data Collection/RAW/A-3.csv","xpyriment","Interactive Ising","3.0.2","yes","0","z","NA","space","space","space","/","space","/","z","space","642","NA","6043","5364","4819","1315","24654","2330","642","1740","legacy","1000","experiment","1","odd","NA","NA","NA","NA","360477","NA","NA","NA","NA","354426","415201","NA","NA","80892","NA","416924","415380","80892","NA","417925","417928","385314","292938","401589","44715","50095","54918","56237","42381","7506","418928","418931","385817","293441","402592","418932","NA","419579","302888","419679","40605","415200","NA","NA","360477","NA","7359","Hommel2002EXP01","7","6500","7","yes","1024"
"n","yes","no","circle","100","100","929","929","black","no","xpyriment","legacy","red","yellow","blue","green","legacy","0","uniform","1","1","z","1","NA","NA","NA","1","NA","NA","1","NA","0","39","0","0","0","0","39","39","0","0","39","39","39","39","39","0","0","0","0","0","0","39","39","39","39","39","39","39","39","39","39","0","39","NA","NA","1","NA","0","01/02/16 20:06:05","Default description","no","chinese-japanese-korean","no","18","white","開始實驗A","768","legacy","C:/Users/Evonne/Desktop/test/Compatibility/3_Data Collection/RAW/A-3.csv","xpyriment","Interactive Ising","3.0.2","yes","0","z","NA","space","space","space","/","space","/","z","space","934","NA","6043","5364","4819","1315","24654","2330","934","1740","legacy","0","experiment","1","odd","NA","NA","NA","NA","360477","NA","NA","NA","NA","354426","423701","NA","NA","80892","NA","425411","423868","80892","NA","426412","417928","426415","292938","401589","44715","50095","54918","56237","42381","7506","426415","418931","426418","293441","402592","426419","NA","427358","302888","427458","40605","423700","NA","NA","360477","NA","7359","Hommel2002EXP01","8","7434","8","yes","1024"
"n","yes","no","circle","100","100","890","890","black","no","xpyriment","legacy","green","blue","yellow","red","legacy","0","uniform","1","1","z","1","NA","NA","NA","1","NA","NA","1","NA","0","40","0","0","0","0","40","40","0","0","40","40","40","40","40","0","0","0","0","0","0","40","40","40","40","40","40","40","40","40","40","0","40","NA","NA","1","NA","0","01/02/16 20:06:05","Default description","no","chinese-japanese-korean","no","18","white","開始實驗A","768","legacy","C:/Users/Evonne/Desktop/test/Compatibility/3_Data Collection/RAW/A-3.csv","xpyriment","Interactive Ising","3.0.2","yes","0","z","NA","space","space","space","/","space","/","z","space","577","NA","6043","5364","4819","1315","24654","2330","577","1740","legacy","1500","experiment","1","odd","NA","NA","NA","NA","360477","NA","NA","NA","NA","354426","431521","NA","NA","80892","NA","433312","431768","80892","NA","434313","417928","434316","292938","401589","44715","50095","54918","56237","42381","7506","435816","418931","435819","293441","402592","435820","NA","436402","302888","436502","40605","431521","NA","NA","360477","NA","7359","Hommel2002EXP01","9","8011","9","yes","1024"
"y","yes","no","rect","100","100","907","907","black","no","xpyriment","legacy","red","green","yellow","blue","legacy","0","uniform","1","1","/","1","NA","NA","NA","1","NA","NA","1","NA","0","41","0","0","0","0","41","41","0","0","41","41","41","41","41","0","0","0","0","0","0","41","41","41","41","41","41","41","41","41","41","0","41","NA","NA","1","NA","0","01/02/16 20:06:05","Default description","no","chinese-japanese-korean","no","18","white","開始實驗A","768","legacy","C:/Users/Evonne/Desktop/test/Compatibility/3_Data Collection/RAW/A-3.csv","xpyriment","Interactive Ising","3.0.2","yes","0","/","NA","space","space","space","/","space","/","/","space","1068","NA","6043","5364","4819","1315","24654","2330","1068","1740","legacy","500","experiment","1","odd","NA","NA","NA","NA","360477","NA","NA","NA","NA","354426","440581","NA","NA","80892","NA","442404","440858","80892","NA","443405","417928","434316","443408","401589","44715","50095","54918","56237","42381","7506","443908","418931","435819","443911","402592","443911","NA","444984","302888","445084","40605","440581","NA","NA","360477","NA","7359","Hommel2002EXP01","10","9079","10","yes","1024"
"y","yes","no","rect","100","100","906","906","black","no","xpyriment","legacy","red","yellow","blue","green","legacy","0","uniform","1","1","/","1","NA","NA","NA","1","NA","NA","1","NA","0","42","0","0","0","0","42","42","0","0","42","42","42","42","42","0","0","0","0","0","0","42","42","42","42","42","42","42","42","42","42","0","42","NA","NA","1","NA","0","01/02/16 20:06:05","Default description","no","chinese-japanese-korean","no","18","white","開始實驗A","768","legacy","C:/Users/Evonne/Desktop/test/Compatibility/3_Data Collection/RAW/A-3.csv","xpyriment","Interactive Ising","3.0.2","yes","0","/","NA","space","space","space","/","space","/","/","space","894","NA","6043","5364","4819","1315","24654","2330","894","1740","legacy","500","experiment","1","odd","NA","NA","NA","NA","360477","NA","NA","NA","NA","354426","449203","NA","NA","80892","NA","451133","449631","80892","NA","452134","417928","434316","452137","401589","44715","50095","54918","56237","42381","7506","452637","418931","435819","452640","402592","452640","NA","453539","302888","453640","40605","449203","NA","NA","360477","NA","7359","Hommel2002EXP01","11","9973","11","yes","1024"
"y","yes","no","circle","100","100","913","913","black","no","xpyriment","legacy","green","red","yellow","blue","legacy","0","uniform","1","1","z","1","NA","NA","NA","1","NA","NA","1","NA","0","43","0","0","0","0","43","43","0","0","43","43","43","43","43","0","0","0","0","0","0","43","43","43","43","43","43","43","43","43","43","0","43","NA","NA","1","NA","0","01/02/16 20:06:05","Default description","no","chinese-japanese-korean","no","18","white","開始實驗A","768","legacy","C:/Users/Evonne/Desktop/test/Compatibility/3_Data Collection/RAW/A-3.csv","xpyriment","Interactive Ising","3.0.2","yes","0","z","NA","space","space","space","/","space","/","z","space","987","NA","6043","5364","4819","1315","24654","2330","987","1740","legacy","0","experiment","1","odd","NA","NA","NA","NA","360477","NA","NA","NA","NA","354426","457160","NA","NA","80892","NA","458837","457292","80892","NA","459838","459841","434316","452137","401589","44715","50095","54918","56237","42381","7506","459841","459844","435819","452640","402592","459845","NA","460837","302888","460938","40605","457159","NA","NA","360477","NA","7359","Hommel2002EXP01","12","10960","12","yes","1024"
"y","yes","no","circle","100","100","908","908","black","no","xpyriment","legacy","red","yellow","blue","green","legacy","0","uniform","1","1","z","1","NA","NA","NA","1","NA","NA","1","NA","0","44","0","0","0","0","44","44","0","0","44","44","44","44","44","0","0","0","0","0","0","44","44","44","44","44","44","44","44","44","44","0","44","NA","NA","1","NA","0","01/02/16 20:06:05","Default description","no","chinese-japanese-korean","no","18","white","開始實驗A","768","legacy","C:/Users/Evonne/Desktop/test/Compatibility/3_Data Collection/RAW/A-3.csv","xpyriment","Interactive Ising","3.0.2","yes","0","z","NA","space","space","space","/","space","/","z","space","853","NA","6043","5364","4819","1315","24654","2330","853","1740","legacy","1500","experiment","1","odd","NA","NA","NA","NA","360477","NA","NA","NA","NA","354426","465082","NA","NA","80892","NA","466792","465241","80892","NA","467792","467795","434316","452137","401589","44715","50095","54918","56237","42381","7506","469295","469298","435819","452640","402592","469299","NA","470157","302888","470257","40605","465081","NA","NA","360477","NA","7359","Hommel2002EXP01","13","11813","13","yes","1024"
"n","yes","no","rect","100","100","914","914","black","no","xpyriment","legacy","yellow","green","red","blue","legacy","0","uniform","1","1","/","1","NA","NA","NA","1","NA","NA","1","NA","0","45","0","0","0","0","45","45","0","0","45","45","45","45","45","0","0","0","0","0","0","45","45","45","45","45","45","45","45","45","45","0","45","NA","NA","1","NA","0","01/02/16 20:06:05","Default description","no","chinese-japanese-korean","no","18","white","開始實驗A","768","legacy","C:/Users/Evonne/Desktop/test/Compatibility/3_Data Collection/RAW/A-3.csv","xpyriment","Interactive Ising","3.0.2","yes","0","/","NA","space","space","space","/","space","/","/","space","996","NA","6043","5364","4819","1315","24654","2330","996","1740","legacy","0","experiment","1","odd","NA","NA","NA","NA","360477","NA","NA","NA","NA","354426","474528","NA","NA","80892","NA","476228","474681","80892","NA","477228","467795","434316","452137","477231","44715","50095","54918","56237","42381","7506","477231","469298","435819","452640","477234","477235","NA","478236","302888","478337","40605","474527","NA","NA","360477","NA","7359","Hommel2002EXP01","14","12809","14","yes","1024"
"y","yes","no","rect","100","100","910","910","black","no","xpyriment","legacy","blue","red","yellow","green","legacy","0","uniform","1","1","/","1","NA","NA","NA","1","NA","NA","1","NA","0","46","0","0","0","0","46","46","0","0","46","46","46","46","46","0","0","0","0","0","0","46","46","46","46","46","46","46","46","46","46","0","46","NA","NA","1","NA","0","01/02/16 20:06:05","Default description","no","chinese-japanese-korean","no","18","white","開始實驗A","768","legacy","C:/Users/Evonne/Desktop/test/Compatibility/3_Data Collection/RAW/A-3.csv","xpyriment","Interactive Ising","3.0.2","yes","0","/","NA","space","space","space","/","space","/","/","space","846","NA","6043","5364","4819","1315","24654","2330","846","1740","legacy","1000","experiment","1","odd","NA","NA","NA","NA","360477","NA","NA","NA","NA","354426","482627","NA","NA","80892","NA","484401","482857","80892","NA","485402","467795","434316","485405","477231","44715","50095","54918","56237","42381","7506","486405","469298","435819","486408","477234","486408","NA","487260","302888","487360","40605","482627","NA","NA","360477","NA","7359","Hommel2002EXP01","15","13655","15","yes","1024"
"y","yes","no","rect","100","100","907","907","black","no","xpyriment","legacy","yellow","red","green","blue","legacy","0","uniform","1","1","/","1","NA","NA","NA","1","NA","NA","1","NA","0","47","0","0","0","0","47","47","0","0","47","47","47","47","47","0","0","0","0","0","0","47","47","47","47","47","47","47","47","47","47","0","47","NA","NA","1","NA","0","01/02/16 20:06:05","Default description","no","chinese-japanese-korean","no","18","white","開始實驗A","768","legacy","C:/Users/Evonne/Desktop/test/Compatibility/3_Data Collection/RAW/A-3.csv","xpyriment","Interactive Ising","3.0.2","yes","0","/","NA","space","space","space","/","space","/","/","space","865","NA","6043","5364","4819","1315","24654","2330","865","1740","legacy","1500","experiment","1","odd","NA","NA","NA","NA","360477","NA","NA","NA","NA","354426","491248","NA","NA","80892","NA","493045","491498","80892","NA","494046","467795","434316","494050","477231","44715","50095","54918","56237","42381","7506","495550","469298","435819","495553","477234","495553","NA","496423","302888","496524","40605","491248","NA","NA","360477","NA","7359","Hommel2002EXP01","16","14520","16","yes","1024"
"n","yes","no","circle","100","100","920","920","black","no","xpyriment","legacy","green","red","yellow","blue","legacy","0","uniform","1","1","z","1","NA","NA","NA","1","NA","NA","1","NA","0","48","0","0","0","0","48","48","0","0","48","48","48","48","48","0","0","0","0","0","0","48","48","48","48","48","48","48","48","48","48","0","48","NA","NA","1","NA","0","01/02/16 20:06:05","Default description","no","chinese-japanese-korean","no","18","white","開始實驗A","768","legacy","C:/Users/Evonne/Desktop/test/Compatibility/3_Data Collection/RAW/A-3.csv","xpyriment","Interactive Ising","3.0.2","yes","0","z","NA","space","space","space","/","space","/","z","space","1120","NA","6043","5364","4819","1315","24654","2330","1120","1740","legacy","1000","experiment","1","odd","NA","NA","NA","NA","360477","NA","NA","NA","NA","354426","500618","NA","NA","80892","NA","502556","501054","80892","NA","503557","467795","503560","494050","477231","44715","50095","54918","56237","42381","7506","504560","469298","504563","495553","477234","504564","NA","505689","302888","505789","40605","500617","NA","NA","360477","NA","7359","Hommel2002EXP01","17","15640","17","yes","1024"
"n","yes","no","rect","100","100","913","913","black","no","xpyriment","legacy","green","blue","yellow","red","legacy","0","uniform","1","1","/","1","NA","NA","NA","1","NA","NA","1","NA","0","49","0","0","0","0","49","49","0","0","49","49","49","49","49","0","0","0","0","0","0","49","49","49","49","49","49","49","49","49","49","0","49","NA","NA","1","NA","0","01/02/16 20:06:05","Default description","no","chinese-japanese-korean","no","18","white","開始實驗A","768","legacy","C:/Users/Evonne/Desktop/test/Compatibility/3_Data Collection/RAW/A-3.csv","xpyriment","Interactive Ising","3.0.2","yes","0","/","NA","space","space","space","/","space","/","/","space","800","NA","6043","5364","4819","1315","24654","2330","800","1740","legacy","1000","experiment","1","odd","NA","NA","NA","NA","360477","NA","NA","NA","NA","354426","509318","NA","NA","80892","NA","510995","509450","80892","NA","511995","467795","503560","494050","511998","44715","50095","54918","56237","42381","7506","512998","469298","504563","495553","513001","513001","NA","513806","302888","513907","40605","509318","NA","NA","360477","NA","7359","Hommel2002EXP01","18","16440","18","yes","1024"
"y","yes","no","rect","100","100","918","918","black","no","xpyriment","legacy","red","green","yellow","blue","legacy","0","uniform","1","1","/","1","NA","NA","NA","1","NA","NA","1","NA","0","50","0","0","0","0","50","50","0","0","50","50","50","50","50","0","0","0","0","0","0","50","50","50","50","50","50","50","50","50","50","0","50","NA","NA","1","NA","0","01/02/16 20:06:05","Default description","no","chinese-japanese-korean","no","18","white","開始實驗A","768","legacy","C:/Users/Evonne/Desktop/test/Compatibility/3_Data Collection/RAW/A-3.csv","xpyriment","Interactive Ising","3.0.2","yes","0","/","NA","space","space","space","/","space","/","/","space","1016","NA","6043","5364","4819","1315","24654","2330","1016","1740","legacy","0","experiment","1","odd","NA","NA","NA","NA","360477","NA","NA","NA","NA","354426","517840","NA","NA","80892","NA","519536","517988","80892","NA","520536","467795","503560","520539","511998","44715","50095","54918","56237","42381","7506","520539","469298","504563","520542","513001","520543","NA","521564","302888","521665","40605","517840","NA","NA","360477","NA","7359","Hommel2002EXP01","19","17456","19","yes","1024"
"n","yes","no","circle","100","100","910","910","black","no","xpyriment","legacy","blue","green","yellow","red","legacy","0","uniform","1","1","z","1","NA","NA","NA","1","NA","NA","1","NA","0","51","0","0","0","0","51","51","0","0","51","51","51","51","51","0","0","0","0","0","0","51","51","51","51","51","51","51","51","51","51","0","51","NA","NA","1","NA","0","01/02/16 20:06:05","Default description","no","chinese-japanese-korean","no","18","white","開始實驗A","768","legacy","C:/Users/Evonne/Desktop/test/Compatibility/3_Data Collection/RAW/A-3.csv","xpyriment","Interactive Ising","3.0.2","yes","0","z","NA","space","space","space","/","space","/","z","space","744","NA","6043","5364","4819","1315","24654","2330","744","1740","legacy","1000","experiment","1","odd","NA","NA","NA","NA","360477","NA","NA","NA","NA","354426","526008","NA","NA","80892","NA","527732","526190","80892","NA","528733","467795","528736","520539","511998","44715","50095","54918","56237","42381","7506","529736","469298","529740","520542","513001","529740","NA","530490","302888","530590","40605","526008","NA","NA","360477","NA","7359","Hommel2002EXP01","20","18200","20","yes","1024"
"n","yes","no","rect","100","100","908","908","black","no","xpyriment","legacy","yellow","green","blue","red","legacy","0","uniform","1","1","/","1","NA","NA","NA","1","NA","NA","1","NA","0","52","0","0","0","0","52","52","0","0","52","52","52","52","52","0","0","0","0","0","0","52","52","52","52","52","52","52","52","52","52","0","52","NA","NA","1","NA","0","01/02/16 20:06:05","Default description","no","chinese-japanese-korean","no","18","white","開始實驗A","768","legacy","C:/Users/Evonne/Desktop/test/Compatibility/3_Data Collection/RAW/A-3.csv","xpyriment","Interactive Ising","3.0.2","yes","0","/","NA","space","space","space","/","space","/","/","space","888","NA","6043","5364","4819","1315","24654","2330","888","1740","legacy","1500","experiment","1","odd","NA","NA","NA","NA","360477","NA","NA","NA","NA","354426","534767","NA","NA","80892","NA","536500","534959","80892","NA","537500","467795","528736","520539","537504","44715","50095","54918","56237","42381","7506","539004","469298","529740","520542","539007","539008","NA","539901","302888","540001","40605","534766","NA","NA","360477","NA","7359","Hommel2002EXP01","21","19088","21","yes","1024"
"n","yes","no","circle","100","100","901","901","black","no","xpyriment","legacy","red","blue","yellow","green","legacy","0","uniform","1","1","z","1","NA","NA","NA","1","NA","NA","1","NA","0","53","0","0","0","0","53","53","0","0","53","53","53","53","53","0","0","0","0","0","0","53","53","53","53","53","53","53","53","53","53","0","53","NA","NA","1","NA","0","01/02/16 20:06:05","Default description","no","chinese-japanese-korean","no","18","white","開始實驗A","768","legacy","C:/Users/Evonne/Desktop/test/Compatibility/3_Data Collection/RAW/A-3.csv","xpyriment","Interactive Ising","3.0.2","yes","0","z","NA","space","space","space","/","space","/","z","space","735","NA","6043","5364","4819","1315","24654","2330","735","1740","legacy","1500","experiment","1","odd","NA","NA","NA","NA","360477","NA","NA","NA","NA","354426","544146","NA","NA","80892","NA","545922","544378","80892","NA","546923","467795","546926","520539","537504","44715","50095","54918","56237","42381","7506","548426","469298","548429","520542","539007","548430","NA","549170","302888","549270","40605","544145","NA","NA","360477","NA","7359","Hommel2002EXP01","22","19823","22","yes","1024"
"y","yes","no","rect","100","100","895","895","black","no","xpyriment","legacy","yellow","blue","red","green","legacy","0","uniform","1","1","/","1","NA","NA","NA","1","NA","NA","1","NA","0","54","0","0","0","0","54","54","0","0","54","54","54","54","54","0","0","0","0","0","0","54","54","54","54","54","54","54","54","54","54","0","54","NA","NA","1","NA","0","01/02/16 20:06:05","Default description","no","chinese-japanese-korean","no","18","white","開始實驗A","768","legacy","C:/Users/Evonne/Desktop/test/Compatibility/3_Data Collection/RAW/A-3.csv","xpyriment","Interactive Ising","3.0.2","yes","0","/","NA","space","space","space","/","space","/","/","space","775","NA","6043","5364","4819","1315","24654","2330","775","1740","legacy","1500","experiment","1","odd","NA","NA","NA","NA","360477","NA","NA","NA","NA","354426","552944","NA","NA","80892","NA","554885","553383","80892","NA","555886","467795","546926","555889","537504","44715","50095","54918","56237","42381","7506","557389","469298","548429","557392","539007","557392","NA","558174","302888","558274","40605","552943","NA","NA","360477","NA","7359","Hommel2002EXP01","23","20598","23","yes","1024"
"n","yes","no","rect","100","100","888","888","black","no","xpyriment","legacy","yellow","green","red","blue","legacy","0","uniform","1","1","/","1","NA","NA","NA","1","NA","NA","1","NA","0","55","0","0","0","0","55","55","0","0","55","55","55","55","55","0","0","0","0","0","0","55","55","55","55","55","55","55","55","55","55","0","55","NA","NA","1","NA","0","01/02/16 20:06:05","Default description","no","chinese-japanese-korean","no","18","white","開始實驗A","768","legacy","C:/Users/Evonne/Desktop/test/Compatibility/3_Data Collection/RAW/A-3.csv","xpyriment","Interactive Ising","3.0.2","yes","0","/","NA","space","space","space","/","space","/","/","space","719","NA","6043","5364","4819","1315","24654","2330","719","1740","legacy","500","experiment","1","odd","NA","NA","NA","NA","360477","NA","NA","NA","NA","354426","562299","NA","NA","80892","NA","564051","562548","80892","NA","565051","467795","546926","555889","565054","44715","50095","54918","56237","42381","7506","565554","469298","548429","557392","565557","565558","NA","566282","302888","566382","40605","562299","NA","NA","360477","NA","7359","Hommel2002EXP01","24","21317","24","yes","1024"
"y","yes","no","rect","100","100","891","891","black","no","xpyriment","legacy","green","yellow","red","blue","legacy","0","uniform","1","1","/","1","NA","NA","NA","1","NA","NA","1","NA","0","56","0","0","0","0","56","56","0","0","56","56","56","56","56","0","0","0","0","0","0","56","56","56","56","56","56","56","56","56","56","0","56","NA","NA","1","NA","0","01/02/16 20:06:05","Default description","no","chinese-japanese-korean","no","18","white","開始實驗A","768","legacy","C:/Users/Evonne/Desktop/test/Compatibility/3_Data Collection/RAW/A-3.csv","xpyriment","Interactive Ising","3.0.2","yes","0","/","NA","space","space","space","/","space","/","/","space","978","NA","6043","5364","4819","1315","24654","2330","978","1740","legacy","0","experiment","1","odd","NA","NA","NA","NA","360477","NA","NA","NA","NA","354426","570512","NA","NA","80892","NA","572263","570716","80892","NA","573263","467795","546926","573266","565054","44715","50095","54918","56237","42381","7506","573266","469298","548429","573270","565557","573270","NA","574253","302888","574353","40605","570512","NA","NA","360477","NA","7359","Hommel2002EXP01","25","22295","25","yes","1024"
"n","yes","no","rect","100","100","887","887","black","no","xpyriment","legacy","blue","green","yellow","red","legacy","0","uniform","1","1","/","1","NA","NA","NA","1","NA","NA","1","NA","0","57","0","0","0","0","57","57","0","0","57","57","57","57","57","0","0","0","0","0","0","57","57","57","57","57","57","57","57","57","57","0","57","NA","NA","1","NA","0","01/02/16 20:06:05","Default description","no","chinese-japanese-korean","no","18","white","開始實驗A","768","legacy","C:/Users/Evonne/Desktop/test/Compatibility/3_Data Collection/RAW/A-3.csv","xpyriment","Interactive Ising","3.0.2","yes","0","/","NA","space","space","space","/","space","/","/","space","783","NA","6043","5364","4819","1315","24654","2330","783","1740","legacy","0","experiment","1","odd","NA","NA","NA","NA","360477","NA","NA","NA","NA","354426","578126","NA","NA","80892","NA","579951","578404","80892","NA","580952","467795","546926","573266","580955","44715","50095","54918","56237","42381","7506","580955","469298","548429","573270","580958","580959","NA","581747","302888","581847","40605","578125","NA","NA","360477","NA","7359","Hommel2002EXP01","26","23078","26","yes","1024"
"n","yes","no","rect","100","100","882","882","black","no","xpyriment","legacy","yellow","blue","red","green","legacy","0","uniform","1","1","/","1","NA","NA","NA","1","NA","NA","1","NA","0","58","0","0","0","0","58","58","0","0","58","58","58","58","58","0","0","0","0","0","0","58","58","58","58","58","58","58","58","58","58","0","58","NA","NA","1","NA","0","01/02/16 20:06:05","Default description","no","chinese-japanese-korean","no","18","white","開始實驗A","768","legacy","C:/Users/Evonne/Desktop/test/Compatibility/3_Data Collection/RAW/A-3.csv","xpyriment","Interactive Ising","3.0.2","yes","0","/","NA","space","space","space","/","space","/","/","space","755","NA","6043","5364","4819","1315","24654","2330","755","1740","legacy","500","experiment","1","odd","NA","NA","NA","NA","360477","NA","NA","NA","NA","354426","585768","NA","NA","80892","NA","587523","585977","80892","NA","588524","467795","546926","573266","588527","44715","50095","54918","56237","42381","7506","589027","469298","548429","573270","589030","589030","NA","589790","302888","589890","40605","585767","NA","NA","360477","NA","7359","Hommel2002EXP01","27","23833","27","yes","1024"
"y","yes","no","rect","100","100","878","878","black","no","xpyriment","legacy","green","blue","yellow","red","legacy","0","uniform","1","1","/","1","NA","NA","NA","1","NA","NA","1","NA","0","59","0","0","0","0","59","59","0","0","59","59","59","59","59","0","0","0","0","0","0","59","59","59","59","59","59","59","59","59","59","0","59","NA","NA","1","NA","0","01/02/16 20:06:05","Default description","no","chinese-japanese-korean","no","18","white","開始實驗A","768","legacy","C:/Users/Evonne/Desktop/test/Compatibility/3_Data Collection/RAW/A-3.csv","xpyriment","Interactive Ising","3.0.2","yes","0","/","NA","space","space","space","/","space","/","/","space","763","NA","6043","5364","4819","1315","24654","2330","763","1740","legacy","1000","experiment","1","odd","NA","NA","NA","NA","360477","NA","NA","NA","NA","354426","593846","NA","NA","80892","NA","595532","593986","80892","NA","596533","467795","546926","596536","588527","44715","50095","54918","56237","42381","7506","597536","469298","548429","597539","589030","597539","NA","598308","302888","598408","40605","593845","NA","NA","360477","NA","7359","Hommel2002EXP01","28","24596","28","yes","1024"
"n","yes","no","rect","100","100","875","875","black","no","xpyriment","legacy","red","yellow","blue","green","legacy","0","uniform","1","1","/","1","NA","NA","NA","1","NA","NA","1","NA","0","60","0","0","0","0","60","60","0","0","60","60","60","60","60","0","0","0","0","0","0","60","60","60","60","60","60","60","60","60","60","0","60","NA","NA","1","NA","0","01/02/16 20:06:05","Default description","no","chinese-japanese-korean","no","18","white","開始實驗A","768","legacy","C:/Users/Evonne/Desktop/test/Compatibility/3_Data Collection/RAW/A-3.csv","xpyriment","Interactive Ising","3.0.2","yes","0","/","NA","space","space","space","/","space","/","/","space","779","NA","6043","5364","4819","1315","24654","2330","779","1740","legacy","1500","experiment","1","odd","NA","NA","NA","NA","360477","NA","NA","NA","NA","354426","602805","NA","NA","80892","NA","604632","603130","80892","NA","605633","467795","546926","596536","605636","44715","50095","54918","56237","42381","7506","607136","469298","548429","597539","607139","607140","NA","607924","302888","608024","40605","602804","NA","NA","360477","NA","7359","Hommel2002EXP01","29","25375","29","yes","1024"
"y","yes","no","circle","100","100","871","871","black","no","xpyriment","legacy","blue","red","green","yellow","legacy","0","uniform","1","1","z","1","NA","NA","NA","1","NA","NA","1","NA","0","61","0","0","0","0","61","61","0","0","61","61","61","61","61","0","0","0","0","0","0","61","61","61","61","61","61","61","61","61","61","0","61","NA","NA","1","NA","0","01/02/16 20:06:05","Default description","no","chinese-japanese-korean","no","18","white","開始實驗A","768","legacy","C:/Users/Evonne/Desktop/test/Compatibility/3_Data Collection/RAW/A-3.csv","xpyriment","Interactive Ising","3.0.2","yes","0","z","NA","space","space","space","/","space","/","z","space","772","NA","6043","5364","4819","1315","24654","2330","772","1740","legacy","1000","experiment","1","odd","NA","NA","NA","NA","360477","NA","NA","NA","NA","354426","612114","NA","NA","80892","NA","613793","612252","80892","NA","614793","614796","546926","596536","605636","44715","50095","54918","56237","42381","7506","615796","615799","548429","597539","607139","615800","NA","616578","302888","616678","40605","612113","NA","NA","360477","NA","7359","Hommel2002EXP01","30","26147","30","yes","1024"
"n","yes","no","circle","100","100","874","874","black","no","xpyriment","legacy","yellow","green","blue","red","legacy","0","uniform","1","1","z","1","NA","NA","NA","1","NA","NA","1","NA","0","62","0","0","0","0","62","62","0","0","62","62","62","62","62","0","0","0","0","0","0","62","62","62","62","62","62","62","62","62","62","0","62","NA","NA","1","NA","0","01/02/16 20:06:05","Default description","no","chinese-japanese-korean","no","18","white","開始實驗A","768","legacy","C:/Users/Evonne/Desktop/test/Compatibility/3_Data Collection/RAW/A-3.csv","xpyriment","Interactive Ising","3.0.2","yes","0","z","NA","space","space","space","/","space","/","z","space","968","NA","6043","5364","4819","1315","24654","2330","968","1740","legacy","500","experiment","1","odd","NA","NA","NA","NA","360477","NA","NA","NA","NA","354426","620699","NA","NA","80892","NA","622444","620898","80892","NA","623445","614796","623448","596536","605636","44715","50095","54918","56237","42381","7506","623948","615799","623951","597539","607139","623952","NA","624925","302888","625026","40605","620698","NA","NA","360477","NA","7359","Hommel2002EXP01","31","27115","31","yes","1024"
"y","yes","no","circle","100","100","867","867","black","no","xpyriment","legacy","red","green","blue","yellow","legacy","0","uniform","1","1","z","1","NA","NA","NA","1","NA","NA","1","NA","0","63","0","0","0","0","63","63","0","0","63","63","63","63","63","0","0","0","0","0","0","63","63","63","63","63","63","63","63","63","63","0","63","NA","NA","1","NA","0","01/02/16 20:06:05","Default description","no","chinese-japanese-korean","no","18","white","開始實驗A","768","legacy","C:/Users/Evonne/Desktop/test/Compatibility/3_Data Collection/RAW/A-3.csv","xpyriment","Interactive Ising","3.0.2","yes","0","z","NA","space","space","space","/","space","/","z","space","633","NA","6043","5364","4819","1315","24654","2330","633","1740","legacy","500","experiment","1","odd","NA","NA","NA","NA","360477","NA","NA","NA","NA","354426","629141","NA","NA","80892","NA","630835","629293","80892","NA","631835","631838","623448","596536","605636","44715","50095","54918","56237","42381","7506","632338","632341","623951","597539","607139","632342","NA","632980","302888","633081","40605","629141","NA","NA","360477","NA","7359","Hommel2002EXP01","32","27748","32","yes","1024"
"n","yes","no","rect","100","100","1069","1069","black","no","xpyriment","legacy","green","yellow","blue","red","legacy","0","uniform","1","1","/","1","0","NA","NA","1","0","NA","1","NA","1","64","0","0","0","0","64","64","0","0","64","64","64","64","64","0","0","0","0","0","0","64","64","64","64","64","64","64","64","64","64","0","64","0","NA","1","NA","0","01/02/16 20:06:05","Default description","no","chinese-japanese-korean","no","18","white","開始實驗A","768","legacy","C:/Users/Evonne/Desktop/test/Compatibility/3_Data Collection/RAW/A-3.csv","xpyriment","Interactive Ising","3.0.2","no","0","/","space","space","space","space","/","space","/","/","space","1069","1691","53585","5364","4819","1315","24654","2330","1069","1740","legacy","0","experiment","1","odd","687446","689151","NA","NA","360477","NA","NA","NA","NA","633823","693331","689139","NA","80892","NA","695040","693493","80892","NA","696041","631838","623448","596536","696045","44715","50095","54918","56237","42381","7506","696045","632341","623951","597539","696048","696049","NA","697124","302888","697225","40605","693330","689152","NA","360477","NA","7359","Hommel2002EXP01","1","1069","1","yes","1024"
"n","yes","no","circle","100","100","908","908","black","no","xpyriment","legacy","red","green","yellow","blue","legacy","0","uniform","1","1","z","1","0","NA","NA","1","0","NA","1","NA","1","65","0","0","0","0","65","65","0","0","65","65","65","65","65","0","0","0","0","0","0","65","65","65","65","65","65","65","65","65","65","0","65","0","NA","1","NA","0","01/02/16 20:06:05","Default description","no","chinese-japanese-korean","no","18","white","開始實驗A","768","legacy","C:/Users/Evonne/Desktop/test/Compatibility/3_Data Collection/RAW/A-3.csv","xpyriment","Interactive Ising","3.0.2","no","0","z","space","space","space","space","/","space","/","z","space","748","1691","53585","5364","4819","1315","24654","2330","748","1740","legacy","1500","experiment","1","odd","687446","689151","NA","NA","360477","NA","NA","NA","NA","633823","701409","689139","NA","80892","NA","703086","701548","80892","NA","704086","631838","704090","596536","696045","44715","50095","54918","56237","42381","7506","705590","632341","705594","597539","696048","705595","NA","706349","302888","706449","40605","701408","689152","NA","360477","NA","7359","Hommel2002EXP01","2","1817","2","yes","1024"
"y","yes","no","circle","100","100","887","887","black","no","xpyriment","legacy","yellow","blue","green","red","legacy","0","uniform","1","1","z","1","0","NA","NA","1","0","NA","1","NA","1","66","0","0","0","0","66","66","0","0","66","66","66","66","66","0","0","0","0","0","0","66","66","66","66","66","66","66","66","66","66","0","66","0","NA","1","NA","0","01/02/16 20:06:05","Default description","no","chinese-japanese-korean","no","18","white","開始實驗A","768","legacy","C:/Users/Evonne/Desktop/test/Compatibility/3_Data Collection/RAW/A-3.csv","xpyriment","Interactive Ising","3.0.2","no","0","z","space","space","space","space","/","space","/","z","space","846","1691","53585","5364","4819","1315","24654","2330","846","1740","legacy","1000","experiment","1","odd","687446","689151","NA","NA","360477","NA","NA","NA","NA","633823","710689","689139","NA","80892","NA","712423","710921","80892","NA","713424","713427","704090","596536","696045","44715","50095","54918","56237","42381","7506","714427","714430","705594","597539","696048","714431","NA","715281","302888","715382","40605","710688","689152","NA","360477","NA","7359","Hommel2002EXP01","3","2663","3","yes","1024"
"n","yes","no","circle","100","100","855","855","black","no","xpyriment","legacy","blue","green","yellow","red","legacy","0","uniform","1","1","z","1","0","NA","NA","1","0","NA","1","NA","1","67","0","0","0","0","67","67","0","0","67","67","67","67","67","0","0","0","0","0","0","67","67","67","67","67","67","67","67","67","67","0","67","0","NA","1","NA","0","01/02/16 20:06:05","Default description","no","chinese-japanese-korean","no","18","white","開始實驗A","768","legacy","C:/Users/Evonne/Desktop/test/Compatibility/3_Data Collection/RAW/A-3.csv","xpyriment","Interactive Ising","3.0.2","no","0","z","space","space","space","space","/","space","/","z","space","758","1691","53585","5364","4819","1315","24654","2330","758","1740","legacy","500","experiment","1","odd","687446","689151","NA","NA","360477","NA","NA","NA","NA","633823","719332","689139","NA","80892","NA","721031","719484","80892","NA","722031","713427","722034","596536","696045","44715","50095","54918","56237","42381","7506","722534","714430","722537","597539","696048","722538","NA","723301","302888","723401","40605","719332","689152","NA","360477","NA","7359","Hommel2002EXP01","4","3421","4","yes","1024"
"y","yes","no","circle","100","100","870","870","black","no","xpyriment","legacy","green","yellow","red","blue","legacy","0","uniform","1","1","z","1","0","NA","NA","1","0","NA","1","NA","1","68","0","0","0","0","68","68","0","0","68","68","68","68","68","0","0","0","0","0","0","68","68","68","68","68","68","68","68","68","68","0","68","0","NA","1","NA","0","01/02/16 20:06:05","Default description","no","chinese-japanese-korean","no","18","white","開始實驗A","768","legacy","C:/Users/Evonne/Desktop/test/Compatibility/3_Data Collection/RAW/A-3.csv","xpyriment","Interactive Ising","3.0.2","no","0","z","space","space","space","space","/","space","/","z","space","929","1691","53585","5364","4819","1315","24654","2330","929","1740","legacy","0","experiment","1","odd","687446","689151","NA","NA","360477","NA","NA","NA","NA","633823","727410","689139","NA","80892","NA","729202","727657","80892","NA","730203","730206","722034","596536","696045","44715","50095","54918","56237","42381","7506","730206","730209","722537","597539","696048","730210","NA","731144","302888","731244","40605","727410","689152","NA","360477","NA","7359","Hommel2002EXP01","5","4350","5","yes","1024"
"n","yes","no","rect","100","100","858","858","black","no","xpyriment","legacy","red","green","yellow","blue","legacy","0","uniform","1","1","/","1","0","NA","NA","1","0","NA","1","NA","1","69","0","0","0","0","69","69","0","0","69","69","69","69","69","0","0","0","0","0","0","69","69","69","69","69","69","69","69","69","69","0","69","0","NA","1","NA","0","01/02/16 20:06:05","Default description","no","chinese-japanese-korean","no","18","white","開始實驗A","768","legacy","C:/Users/Evonne/Desktop/test/Compatibility/3_Data Collection/RAW/A-3.csv","xpyriment","Interactive Ising","3.0.2","no","0","/","space","space","space","space","/","space","/","/","space","803","1691","53585","5364","4819","1315","24654","2330","803","1740","legacy","500","experiment","1","odd","687446","689151","NA","NA","360477","NA","NA","NA","NA","633823","735169","689139","NA","80892","NA","736904","735358","80892","NA","737905","730206","722034","596536","737908","44715","50095","54918","56237","42381","7506","738408","730209","722537","597539","738411","738412","NA","739221","302888","739321","40605","735169","689152","NA","360477","NA","7359","Hommel2002EXP01","6","5153","6","yes","1024"
"y","yes","no","circle","100","100","834","834","black","no","xpyriment","legacy","yellow","red","green","blue","legacy","0","uniform","1","1","z","1","0","NA","NA","1","0","NA","1","NA","1","70","0","0","0","0","70","70","0","0","70","70","70","70","70","0","0","0","0","0","0","70","70","70","70","70","70","70","70","70","70","0","70","0","NA","1","NA","0","01/02/16 20:06:05","Default description","no","chinese-japanese-korean","no","18","white","開始實驗A","768","legacy","C:/Users/Evonne/Desktop/test/Compatibility/3_Data Collection/RAW/A-3.csv","xpyriment","Interactive Ising","3.0.2","no","0","z","space","space","space","space","/","space","/","z","space","687","1691","53585","5364","4819","1315","24654","2330","687","1740","legacy","500","experiment","1","odd","687446","689151","NA","NA","360477","NA","NA","NA","NA","633823","743403","689139","NA","80892","NA","745118","743571","80892","NA","746118","746121","722034","596536","737908","44715","50095","54918","56237","42381","7506","746621","746624","722537","597539","738411","746625","NA","747317","302888","747417","40605","743402","689152","NA","360477","NA","7359","Hommel2002EXP01","7","5840","7","yes","1024"
"n","yes","no","circle","100","100","829","829","black","no","xpyriment","legacy","red","green","yellow","blue","legacy","0","uniform","1","1","z","1","0","NA","NA","1","0","NA","1","NA","1","71","0","0","0","0","71","71","0","0","71","71","71","71","71","0","0","0","0","0","0","71","71","71","71","71","71","71","71","71","71","0","71","0","NA","1","NA","0","01/02/16 20:06:05","Default description","no","chinese-japanese-korean","no","18","white","開始實驗A","768","legacy","C:/Users/Evonne/Desktop/test/Compatibility/3_Data Collection/RAW/A-3.csv","xpyriment","Interactive Ising","3.0.2","no","0","z","space","space","space","space","/","space","/","z","space","799","1691","53585","5364","4819","1315","24654","2330","799","1740","legacy","0","experiment","1","odd","687446","689151","NA","NA","360477","NA","NA","NA","NA","633823","751436","689139","NA","80892","NA","753227","751676","80892","NA","754227","746121","754230","596536","737908","44715","50095","54918","56237","42381","7506","754231","746624","754233","597539","738411","754234","NA","755038","302888","755139","40605","751435","689152","NA","360477","NA","7359","Hommel2002EXP01","8","6639","8","yes","1024"
"n","yes","no","circle","100","100","798","798","black","no","xpyriment","legacy","red","yellow","green","blue","legacy","0","uniform","1","1","z","1","0","NA","NA","1","0","NA","1","NA","1","72","0","0","0","0","72","72","0","0","72","72","72","72","72","0","0","0","0","0","0","72","72","72","72","72","72","72","72","72","72","0","72","0","NA","1","NA","0","01/02/16 20:06:05","Default description","no","chinese-japanese-korean","no","18","white","開始實驗A","768","legacy","C:/Users/Evonne/Desktop/test/Compatibility/3_Data Collection/RAW/A-3.csv","xpyriment","Interactive Ising","3.0.2","no","0","z","space","space","space","space","/","space","/","z","space","547","1691","53585","5364","4819","1315","24654","2330","547","1740","legacy","1000","experiment","1","odd","687446","689151","NA","NA","360477","NA","NA","NA","NA","633823","759181","689139","NA","80892","NA","761132","759629","80892","NA","762133","746121","762136","596536","737908","44715","50095","54918","56237","42381","7506","763137","746624","763140","597539","738411","763141","NA","763693","302888","763793","40605","759180","689152","NA","360477","NA","7359","Hommel2002EXP01","9","7186","9","yes","1024"
"n","yes","no","rect","100","100","798","798","black","no","xpyriment","legacy","yellow","green","blue","red","legacy","0","uniform","1","1","/","1","0","NA","NA","1","0","NA","1","NA","1","73","0","0","0","0","73","73","0","0","73","73","73","73","73","0","0","0","0","0","0","73","73","73","73","73","73","73","73","73","73","0","73","0","NA","1","NA","0","01/02/16 20:06:05","Default description","no","chinese-japanese-korean","no","18","white","開始實驗A","768","legacy","C:/Users/Evonne/Desktop/test/Compatibility/3_Data Collection/RAW/A-3.csv","xpyriment","Interactive Ising","3.0.2","no","0","/","space","space","space","space","/","space","/","/","space","802","1691","53585","5364","4819","1315","24654","2330","802","1740","legacy","1000","experiment","1","odd","687446","689151","NA","NA","360477","NA","NA","NA","NA","633823","767482","689139","NA","80892","NA","769162","767623","80892","NA","770163","746121","762136","596536","770166","44715","50095","54918","56237","42381","7506","771166","746624","763140","597539","771170","771170","NA","771978","302888","772078","40605","767481","689152","NA","360477","NA","7359","Hommel2002EXP01","10","7988","10","yes","1024"
"n","yes","no","circle","100","100","810","810","black","no","xpyriment","legacy","red","yellow","green","blue","legacy","0","uniform","1","1","z","1","0","NA","NA","1","0","NA","1","NA","1","74","0","0","0","0","74","74","0","0","74","74","74","74","74","0","0","0","0","0","0","74","74","74","74","74","74","74","74","74","74","0","74","0","NA","1","NA","0","01/02/16 20:06:05","Default description","no","chinese-japanese-korean","no","18","white","開始實驗A","768","legacy","C:/Users/Evonne/Desktop/test/Compatibility/3_Data Collection/RAW/A-3.csv","xpyriment","Interactive Ising","3.0.2","no","0","z","space","space","space","space","/","space","/","z","space","924","1691","53585","5364","4819","1315","24654","2330","924","1740","legacy","0","experiment","1","odd","687446","689151","NA","NA","360477","NA","NA","NA","NA","633823","776080","689139","NA","80892","NA","777841","776287","80892","NA","778841","746121","778844","596536","770166","44715","50095","54918","56237","42381","7506","778845","746624","778847","597539","771170","778848","NA","779777","302888","779877","40605","776080","689152","NA","360477","NA","7359","Hommel2002EXP01","11","8912","11","yes","1024"
"n","yes","no","rect","100","100","822","822","black","no","xpyriment","legacy","red","green","yellow","blue","legacy","0","uniform","1","1","/","1","0","NA","NA","1","0","NA","1","NA","1","75","0","0","0","0","75","75","0","0","75","75","75","75","75","0","0","0","0","0","0","75","75","75","75","75","75","75","75","75","75","0","75","0","NA","1","NA","0","01/02/16 20:06:05","Default description","no","chinese-japanese-korean","no","18","white","開始實驗A","768","legacy","C:/Users/Evonne/Desktop/test/Compatibility/3_Data Collection/RAW/A-3.csv","xpyriment","Interactive Ising","3.0.2","no","0","/","space","space","space","space","/","space","/","/","space","953","1691","53585","5364","4819","1315","24654","2330","953","1740","legacy","1500","experiment","1","odd","687446","689151","NA","NA","360477","NA","NA","NA","NA","633823","783959","689139","NA","80892","NA","785629","784092","80892","NA","786629","746121","778844","596536","786632","44715","50095","54918","56237","42381","7506","788132","746624","778847","597539","788135","788136","NA","789094","302888","789194","40605","783958","689152","NA","360477","NA","7359","Hommel2002EXP01","12","9865","12","yes","1024"
"n","yes","no","rect","100","100","815","815","black","no","xpyriment","legacy","blue","green","red","yellow","legacy","0","uniform","1","1","/","1","0","NA","NA","1","0","NA","1","NA","1","76","0","0","0","0","76","76","0","0","76","76","76","76","76","0","0","0","0","0","0","76","76","76","76","76","76","76","76","76","76","0","76","0","NA","1","NA","0","01/02/16 20:06:05","Default description","no","chinese-japanese-korean","no","18","white","開始實驗A","768","legacy","C:/Users/Evonne/Desktop/test/Compatibility/3_Data Collection/RAW/A-3.csv","xpyriment","Interactive Ising","3.0.2","no","0","/","space","space","space","space","/","space","/","/","space","732","1691","53585","5364","4819","1315","24654","2330","732","1740","legacy","1500","experiment","1","odd","687446","689151","NA","NA","360477","NA","NA","NA","NA","633823","793304","689139","NA","80892","NA","795003","793453","80892","NA","796003","746121","778844","596536","796006","44715","50095","54918","56237","42381","7506","797506","746624","778847","597539","797509","797510","NA","798247","302888","798348","40605","793303","689152","NA","360477","NA","7359","Hommel2002EXP01","13","10597","13","yes","1024"
"n","yes","no","circle","100","100","804","804","black","no","xpyriment","legacy","green","blue","red","yellow","legacy","0","uniform","1","1","z","1","0","NA","NA","1","0","NA","1","NA","1","77","0","0","0","0","77","77","0","0","77","77","77","77","77","0","0","0","0","0","0","77","77","77","77","77","77","77","77","77","77","0","77","0","NA","1","NA","0","01/02/16 20:06:05","Default description","no","chinese-japanese-korean","no","18","white","開始實驗A","768","legacy","C:/Users/Evonne/Desktop/test/Compatibility/3_Data Collection/RAW/A-3.csv","xpyriment","Interactive Ising","3.0.2","no","0","z","space","space","space","space","/","space","/","z","space","660","1691","53585","5364","4819","1315","24654","2330","660","1740","legacy","1000","experiment","1","odd","687446","689151","NA","NA","360477","NA","NA","NA","NA","633823","802606","689139","NA","80892","NA","804366","802825","80892","NA","805366","746121","805369","596536","796006","44715","50095","54918","56237","42381","7506","806369","746624","806372","597539","797509","806373","NA","807038","302888","807139","40605","802606","689152","NA","360477","NA","7359","Hommel2002EXP01","14","11257","14","yes","1024"
"y","yes","no","circle","100","100","795","795","black","no","xpyriment","legacy","yellow","red","green","blue","legacy","0","uniform","1","1","z","1","0","NA","NA","1","0","NA","1","NA","1","78","0","0","0","0","78","78","0","0","78","78","78","78","78","0","0","0","0","0","0","78","78","78","78","78","78","78","78","78","78","0","78","0","NA","1","NA","0","01/02/16 20:06:05","Default description","no","chinese-japanese-korean","no","18","white","開始實驗A","768","legacy","C:/Users/Evonne/Desktop/test/Compatibility/3_Data Collection/RAW/A-3.csv","xpyriment","Interactive Ising","3.0.2","no","0","z","space","space","space","space","/","space","/","z","space","670","1691","53585","5364","4819","1315","24654","2330","670","1740","legacy","500","experiment","1","odd","687446","689151","NA","NA","360477","NA","NA","NA","NA","633823","811216","689139","NA","80892","NA","813058","811510","80892","NA","814059","814062","805369","596536","796006","44715","50095","54918","56237","42381","7506","814562","814565","806372","597539","797509","814566","NA","815242","302888","815343","40605","811216","689152","NA","360477","NA","7359","Hommel2002EXP01","15","11927","15","yes","1024"
"n","yes","no","circle","100","100","780","780","black","no","xpyriment","legacy","red","green","yellow","blue","legacy","0","uniform","1","1","z","1","0","NA","NA","1","0","NA","1","NA","1","79","0","0","0","0","79","79","0","0","79","79","79","79","79","0","0","0","0","0","0","79","79","79","79","79","79","79","79","79","79","0","79","0","NA","1","NA","0","01/02/16 20:06:05","Default description","no","chinese-japanese-korean","no","18","white","開始實驗A","768","legacy","C:/Users/Evonne/Desktop/test/Compatibility/3_Data Collection/RAW/A-3.csv","xpyriment","Interactive Ising","3.0.2","no","0","z","space","space","space","space","/","space","/","z","space","560","1691","53585","5364","4819","1315","24654","2330","560","1740","legacy","1500","experiment","1","odd","687446","689151","NA","NA","360477","NA","NA","NA","NA","633823","819406","689139","NA","80892","NA","821358","819856","80892","NA","822359","814062","822362","596536","796006","44715","50095","54918","56237","42381","7506","823862","814565","823865","597539","797509","823866","NA","824432","302888","824532","40605","819405","689152","NA","360477","NA","7359","Hommel2002EXP01","16","12487","16","yes","1024"
"n","yes","no","rect","100","100","782","782","black","no","xpyriment","legacy","green","blue","yellow","red","legacy","0","uniform","1","1","/","1","0","NA","NA","1","0","NA","1","NA","1","80","0","0","0","0","80","80","0","0","80","80","80","80","80","0","0","0","0","0","0","80","80","80","80","80","80","80","80","80","80","0","80","0","NA","1","NA","0","01/02/16 20:06:05","Default description","no","chinese-japanese-korean","no","18","white","開始實驗A","768","legacy","C:/Users/Evonne/Desktop/test/Compatibility/3_Data Collection/RAW/A-3.csv","xpyriment","Interactive Ising","3.0.2","no","0","/","space","space","space","space","/","space","/","/","space","816","1691","53585","5364","4819","1315","24654","2330","816","1740","legacy","0","experiment","1","odd","687446","689151","NA","NA","360477","NA","NA","NA","NA","633823","828137","689139","NA","80892","NA","829830","828286","80892","NA","830830","814062","822362","596536","830833","44715","50095","54918","56237","42381","7506","830833","814565","823865","597539","830836","830837","NA","831658","302888","831758","40605","828137","689152","NA","360477","NA","7359","Hommel2002EXP01","17","13303","17","yes","1024"
"y","yes","no","rect","100","100","788","788","black","no","xpyriment","legacy","blue","red","green","yellow","legacy","0","uniform","1","1","/","1","0","NA","NA","1","0","NA","1","NA","1","81","0","0","0","0","81","81","0","0","81","81","81","81","81","0","0","0","0","0","0","81","81","81","81","81","81","81","81","81","81","0","81","0","NA","1","NA","0","01/02/16 20:06:05","Default description","no","chinese-japanese-korean","no","18","white","開始實驗A","768","legacy","C:/Users/Evonne/Desktop/test/Compatibility/3_Data Collection/RAW/A-3.csv","xpyriment","Interactive Ising","3.0.2","no","0","/","space","space","space","space","/","space","/","/","space","893","1691","53585","5364","4819","1315","24654","2330","893","1740","legacy","0","experiment","1","odd","687446","689151","NA","NA","360477","NA","NA","NA","NA","633823","835723","689139","NA","80892","NA","837441","835892","80892","NA","838441","814062","822362","838444","830833","44715","50095","54918","56237","42381","7506","838444","814565","823865","838448","830836","838448","NA","839347","302888","839447","40605","835722","689152","NA","360477","NA","7359","Hommel2002EXP01","18","14196","18","yes","1024"
