"Compatibility","EXPA","EXPB","Shape","acc","accuracy","average_response_time","avg_rt","background","bidi","canvas_backend","clock_backend","color1","color2","color3","color4","color_backend","compensation","coordinates","correct","correct_Target_response","correct_response","count_Block_Break","count_Block_EXPERIMENT_A","count_Block_EXPERIMENT_B","count_Block_Parctice_B","count_Block_Practice_A","count_Block_reset_EXPERIMENT_A","count_Block_reset_EXPERIMENT_B","count_Block_reset_Practice_A","count_Block_reset_Practice_B","count_Break","count_Decide_Color","count_EXPERIMENT_A","count_EXPERIMENT_B","count_EXP_A","count_EXP_B","count_Initial","count_Intertrial","count_Practice_A","count_Practice_B","count_Prepare","count_Prepare_circle_compatible","count_Prepare_circle_incompatible","count_Prepare_rect_compatible","count_Prepare_rect_incompatible","count_Procedure_Ins01","count_Procedure_Ins02","count_Procedure_Ins03","count_Ready","count_Response_Ins","count_Select_Experiment","count_Target","count_Target_circle_compatible","count_Target_circle_incompatible","count_Target_rect_compatible","count_Target_rect_incompatible","count_Target_response","count_Target_response_BadResponse","count_Target_response_Correct","count_Target_response_Wrong","count_Target_response_logger","count_Title","count_Trial","count_Trial_EXPERIMENT_A","count_Trial_EXPERIMENT_B","count_Trial_Practice_A","count_Trial_Practice_B","count_experiment","datetime","description","font_bold","font_family","font_italic","font_size","foreground","form_response","height","keyboard_backend","logfile","mouse_backend","opensesame_codename","opensesame_version","practice","repeat_cycle","response","response_Block_Break","response_Break","response_Procedure_Ins01","response_Procedure_Ins02","response_Procedure_Ins03","response_Ready","response_Response_Ins","response_Target_response","response_Title","response_time","response_time_Block_Break","response_time_Break","response_time_Procedure_Ins01","response_time_Procedure_Ins02","response_time_Procedure_Ins03","response_time_Ready","response_time_Response_Ins","response_time_Target_response","response_time_Title","sampler_backend","soa","start","subject_nr","subject_parity","time_Block_Break","time_Block_EXPERIMENT_A","time_Block_EXPERIMENT_B","time_Block_Parctice_B","time_Block_Practice_A","time_Block_reset_EXPERIMENT_A","time_Block_reset_EXPERIMENT_B","time_Block_reset_Practice_A","time_Block_reset_Practice_B","time_Break","time_Decide_Color","time_EXPERIMENT_A","time_EXPERIMENT_B","time_EXP_A","time_EXP_B","time_Initial","time_Intertrial","time_Practice_A","time_Practice_B","time_Prepare","time_Prepare_circle_compatible","time_Prepare_circle_incompatible","time_Prepare_rect_compatible","time_Prepare_rect_incompatible","time_Procedure_Ins01","time_Procedure_Ins02","time_Procedure_Ins03","time_Ready","time_Response_Ins","time_Select_Experiment","time_Target","time_Target_circle_compatible","time_Target_circle_incompatible","time_Target_rect_compatible","time_Target_rect_incompatible","time_Target_response","time_Target_response_BadResponse","time_Target_response_Correct","time_Target_response_Wrong","time_Target_response_logger","time_Title","time_Trial","time_Trial_EXPERIMENT_A","time_Trial_EXPERIMENT_B","time_Trial_Practice_A","time_Trial_Practice_B","time_experiment","title","total_correct","total_response_time","total_responses","uniform_coordinates","width"
"y","no","yes","circle","100","100","1432","1432","black","no","xpyriment","legacy","red","blue","yellow","green","legacy","0","uniform","1","1","z","1","NA","NA","0","NA","NA","NA","NA","0","NA","0","0","0","0","0","0","0","0","0","0","0","0","0","0","0","0","0","0","0","0","0","0","0","0","0","0","0","0","0","0","0","0","NA","NA","NA","0","0","01/04/16 20:11:09","Default description","no","chinese-japanese-korean","no","18","white","開始實驗B","768","legacy","C:/Users/Evonne/Desktop/test/Compatibility/3_Data Collection/RAW/A-4.csv","xpyriment","Interactive Ising","3.0.2","yes","0","z","NA","NA","/","space","/","/","/","z","space","1432","NA","NA","3046","3539","9133","9036","2899","1432","35386","legacy","500","experiment","1","odd","NA","NA","NA","232464","NA","NA","NA","NA","NA","NA","236646","NA","NA","NA","232454","238485","236939","NA","232454","239485","239489","NA","NA","NA","207677","210730","214276","223416","204752","9878","239989","239993","NA","NA","NA","239994","NA","241432","NA","241532","169214","236645","NA","NA","NA","232465","9702","Hommel2002EXP01","1","1432","1","yes","1024"
"n","no","yes","rect","100","100","1146","1146","black","no","xpyriment","legacy","red","blue","green","yellow","legacy","0","uniform","1","1","/","1","NA","NA","0","NA","NA","NA","NA","0","NA","1","0","0","0","0","1","1","0","0","1","1","1","1","1","0","0","0","0","0","0","1","1","1","1","1","1","1","1","1","1","0","1","NA","NA","NA","0","0","01/04/16 20:11:09","Default description","no","chinese-japanese-korean","no","18","white","開始實驗B","768","legacy","C:/Users/Evonne/Desktop/test/Compatibility/3_Data Collection/RAW/A-4.csv","xpyriment","Interactive Ising","3.0.2","yes","0","/","NA","NA","/","space","/","/","/","/","space","861","NA","NA","3046","3539","9133","9036","2899","861","35386","legacy","500","experiment","1","odd","NA","NA","NA","232464","NA","NA","NA","NA","NA","NA","245610","NA","NA","NA","232454","247443","245901","NA","232454","248444","239489","NA","NA","248448","207677","210730","214276","223416","204752","9878","248948","239993","NA","NA","248952","248952","NA","249819","NA","249919","169214","245610","NA","NA","NA","232465","9702","Hommel2002EXP01","2","2293","2","yes","1024"
"n","no","yes","circle","66.6666666667","66.6666666667","1431","1431","black","no","xpyriment","legacy","blue","red","green","yellow","legacy","0","uniform","0","0","z","1","NA","NA","0","NA","NA","NA","NA","0","NA","2","0","0","0","0","2","2","0","0","2","2","2","2","2","0","0","0","0","0","0","2","2","2","2","2","2","2","2","2","2","0","2","NA","NA","NA","0","0","01/04/16 20:11:09","Default description","no","chinese-japanese-korean","no","18","white","開始實驗B","768","legacy","C:/Users/Evonne/Desktop/test/Compatibility/3_Data Collection/RAW/A-4.csv","xpyriment","Interactive Ising","3.0.2","yes","0","None","NA","NA","/","space","/","/","/","None","space","2001","NA","NA","3046","3539","9133","9036","2899","2001","35386","legacy","500","experiment","1","odd","NA","NA","NA","232464","NA","NA","NA","NA","NA","NA","254058","NA","NA","NA","232454","255902","254398","NA","232454","256902","239489","256906","NA","248448","207677","210730","214276","223416","204752","9878","257406","239993","257410","NA","248952","257410","259519","249819","259416","259619","169214","254057","NA","NA","NA","232465","9702","Hommel2002EXP01","2","4294","3","yes","1024"
"y","no","yes","rect","75","75","1333","1333","black","no","xpyriment","legacy","green","red","blue","yellow","legacy","0","uniform","1","1","/","1","NA","NA","0","NA","NA","NA","NA","0","NA","3","0","0","0","0","3","3","0","0","3","3","3","3","3","0","0","0","0","0","0","3","3","3","3","3","3","3","3","3","3","0","3","NA","NA","NA","0","0","01/04/16 20:11:09","Default description","no","chinese-japanese-korean","no","18","white","開始實驗B","768","legacy","C:/Users/Evonne/Desktop/test/Compatibility/3_Data Collection/RAW/A-4.csv","xpyriment","Interactive Ising","3.0.2","yes","0","/","NA","NA","/","space","/","/","/","/","space","1040","NA","NA","3046","3539","9133","9036","2899","1040","35386","legacy","500","experiment","1","odd","NA","NA","NA","232464","NA","NA","NA","NA","NA","NA","263311","NA","NA","NA","232454","265131","263589","NA","232454","266132","239489","256906","266137","248448","207677","210730","214276","223416","204752","9878","266637","239993","257410","266642","248952","266642","259519","267688","259416","267788","169214","263310","NA","NA","NA","232465","9702","Hommel2002EXP01","3","5334","4","yes","1024"
"y","no","yes","circle","80","80","1255","1255","black","no","xpyriment","legacy","blue","red","yellow","green","legacy","0","uniform","1","1","z","1","NA","NA","0","NA","NA","NA","NA","0","NA","4","0","0","0","0","4","4","0","0","4","4","4","4","4","0","0","0","0","0","0","4","4","4","4","4","4","4","4","4","4","0","4","NA","NA","NA","0","0","01/04/16 20:11:09","Default description","no","chinese-japanese-korean","no","18","white","開始實驗B","768","legacy","C:/Users/Evonne/Desktop/test/Compatibility/3_Data Collection/RAW/A-4.csv","xpyriment","Interactive Ising","3.0.2","yes","0","z","NA","NA","/","space","/","/","/","z","space","943","NA","NA","3046","3539","9133","9036","2899","943","35386","legacy","0","experiment","1","odd","NA","NA","NA","232464","NA","NA","NA","NA","NA","NA","271724","NA","NA","NA","232454","273552","272008","NA","232454","274553","274557","256906","266137","248448","207677","210730","214276","223416","204752","9878","274557","274561","257410","266642","248952","274562","259519","275511","259416","275611","169214","271723","NA","NA","NA","232465","9702","Hommel2002EXP01","4","6277","5","yes","1024"
"y","no","yes","rect","83.3333333333","83.3333333333","1216","1216","black","no","xpyriment","legacy","red","blue","yellow","green","legacy","0","uniform","1","1","/","1","NA","NA","0","NA","NA","NA","NA","0","NA","5","0","0","0","0","5","5","0","0","5","5","5","5","5","0","0","0","0","0","0","5","5","5","5","5","5","5","5","5","5","0","5","NA","NA","NA","0","0","01/04/16 20:11:09","Default description","no","chinese-japanese-korean","no","18","white","開始實驗B","768","legacy","C:/Users/Evonne/Desktop/test/Compatibility/3_Data Collection/RAW/A-4.csv","xpyriment","Interactive Ising","3.0.2","yes","0","/","NA","NA","/","space","/","/","/","/","space","1020","NA","NA","3046","3539","9133","9036","2899","1020","35386","legacy","500","experiment","1","odd","NA","NA","NA","232464","NA","NA","NA","NA","NA","NA","279602","NA","NA","NA","232454","281433","279887","NA","232454","282433","274557","256906","282437","248448","207677","210730","214276","223416","204752","9878","282937","274561","257410","282941","248952","282941","259519","283967","259416","284067","169214","279601","NA","NA","NA","232465","9702","Hommel2002EXP01","5","7297","6","yes","1024"
"y","no","yes","circle","85.7142857143","85.7142857143","1146","1146","black","no","xpyriment","legacy","blue","green","red","yellow","legacy","0","uniform","1","1","z","1","NA","NA","0","NA","NA","NA","NA","0","NA","6","0","0","0","0","6","6","0","0","6","6","6","6","6","0","0","0","0","0","0","6","6","6","6","6","6","6","6","6","6","0","6","NA","NA","NA","0","0","01/04/16 20:11:09","Default description","no","chinese-japanese-korean","no","18","white","開始實驗B","768","legacy","C:/Users/Evonne/Desktop/test/Compatibility/3_Data Collection/RAW/A-4.csv","xpyriment","Interactive Ising","3.0.2","yes","0","z","NA","NA","/","space","/","/","/","z","space","730","NA","NA","3046","3539","9133","9036","2899","730","35386","legacy","500","experiment","1","odd","NA","NA","NA","232464","NA","NA","NA","NA","NA","NA","287896","NA","NA","NA","232454","289745","288195","NA","232454","290746","290750","256906","282437","248448","207677","210730","214276","223416","204752","9878","291250","291254","257410","282941","248952","291254","259519","291991","259416","292092","169214","287895","NA","NA","NA","232465","9702","Hommel2002EXP01","6","8027","7","yes","1024"
"n","no","yes","circle","87.5","87.5","1135","1135","black","no","xpyriment","legacy","red","yellow","blue","green","legacy","0","uniform","1","1","z","1","NA","NA","0","NA","NA","NA","NA","0","NA","7","0","0","0","0","7","7","0","0","7","7","7","7","7","0","0","0","0","0","0","7","7","7","7","7","7","7","7","7","7","0","7","NA","NA","NA","0","0","01/04/16 20:11:09","Default description","no","chinese-japanese-korean","no","18","white","開始實驗B","768","legacy","C:/Users/Evonne/Desktop/test/Compatibility/3_Data Collection/RAW/A-4.csv","xpyriment","Interactive Ising","3.0.2","yes","0","z","NA","NA","/","space","/","/","/","z","space","1055","NA","NA","3046","3539","9133","9036","2899","1055","35386","legacy","500","experiment","1","odd","NA","NA","NA","232464","NA","NA","NA","NA","NA","NA","296238","NA","NA","NA","232454","298070","296526","NA","232454","299070","290750","299074","282437","248448","207677","210730","214276","223416","204752","9878","299574","291254","299578","282941","248952","299578","259519","300639","259416","300739","169214","296237","NA","NA","NA","232465","9702","Hommel2002EXP01","7","9082","8","yes","1024"
"y","no","yes","circle","88.8888888889","88.8888888889","1135","1135","black","no","xpyriment","legacy","blue","green","red","yellow","legacy","0","uniform","1","1","z","1","NA","NA","0","NA","NA","NA","NA","0","NA","8","0","0","0","0","8","8","0","0","8","8","8","8","8","0","0","0","0","0","0","8","8","8","8","8","8","8","8","8","8","0","8","NA","NA","NA","0","0","01/04/16 20:11:09","Default description","no","chinese-japanese-korean","no","18","white","開始實驗B","768","legacy","C:/Users/Evonne/Desktop/test/Compatibility/3_Data Collection/RAW/A-4.csv","xpyriment","Interactive Ising","3.0.2","yes","0","z","NA","NA","/","space","/","/","/","z","space","1136","NA","NA","3046","3539","9133","9036","2899","1136","35386","legacy","0","experiment","1","odd","NA","NA","NA","232464","NA","NA","NA","NA","NA","NA","304900","NA","NA","NA","232454","306822","305319","NA","232454","307822","307826","299074","282437","248448","207677","210730","214276","223416","204752","9878","307826","307830","299578","282941","248952","307830","259519","308972","259416","309072","169214","304899","NA","NA","NA","232465","9702","Hommel2002EXP01","8","10218","9","yes","1024"
"n","no","yes","rect","90","90","1137","1137","black","no","xpyriment","legacy","yellow","red","blue","green","legacy","0","uniform","1","1","/","1","NA","NA","0","NA","NA","NA","NA","0","NA","9","0","0","0","0","9","9","0","0","9","9","9","9","9","0","0","0","0","0","0","9","9","9","9","9","9","9","9","9","9","0","9","NA","NA","NA","0","0","01/04/16 20:11:09","Default description","no","chinese-japanese-korean","no","18","white","開始實驗B","768","legacy","C:/Users/Evonne/Desktop/test/Compatibility/3_Data Collection/RAW/A-4.csv","xpyriment","Interactive Ising","3.0.2","yes","0","/","NA","NA","/","space","/","/","/","/","space","1152","NA","NA","3046","3539","9133","9036","2899","1152","35386","legacy","0","experiment","1","odd","NA","NA","NA","232464","NA","NA","NA","NA","NA","NA","312628","NA","NA","NA","232454","314349","312807","NA","232454","315349","307826","299074","282437","315353","207677","210730","214276","223416","204752","9878","315353","307830","299578","282941","315357","315357","259519","316515","259416","316615","169214","312627","NA","NA","NA","232465","9702","Hommel2002EXP01","9","11370","10","yes","1024"
"n","no","yes","rect","90.9090909091","90.9090909091","1132","1132","black","no","xpyriment","legacy","red","blue","yellow","green","legacy","0","uniform","1","1","/","1","NA","NA","0","NA","NA","NA","NA","0","NA","10","0","0","0","0","10","10","0","0","10","10","10","10","10","0","0","0","0","0","0","10","10","10","10","10","10","10","10","10","10","0","10","NA","NA","NA","0","0","01/04/16 20:11:09","Default description","no","chinese-japanese-korean","no","18","white","開始實驗B","768","legacy","C:/Users/Evonne/Desktop/test/Compatibility/3_Data Collection/RAW/A-4.csv","xpyriment","Interactive Ising","3.0.2","yes","0","/","NA","NA","/","space","/","/","/","/","space","1090","NA","NA","3046","3539","9133","9036","2899","1090","35386","legacy","0","experiment","1","odd","NA","NA","NA","232464","NA","NA","NA","NA","NA","NA","320750","NA","NA","NA","232454","322553","321008","NA","232454","323553","307826","299074","282437","323557","207677","210730","214276","223416","204752","9878","323558","307830","299578","282941","323561","323562","259519","324658","259416","324758","169214","320750","NA","NA","NA","232465","9702","Hommel2002EXP01","10","12460","11","yes","1024"
"y","no","yes","rect","91.6666666667","91.6666666667","1126","1126","black","no","xpyriment","legacy","green","yellow","blue","red","legacy","0","uniform","1","1","/","1","NA","NA","0","NA","NA","NA","NA","0","NA","11","0","0","0","0","11","11","0","0","11","11","11","11","11","0","0","0","0","0","0","11","11","11","11","11","11","11","11","11","11","0","11","NA","NA","NA","0","0","01/04/16 20:11:09","Default description","no","chinese-japanese-korean","no","18","white","開始實驗B","768","legacy","C:/Users/Evonne/Desktop/test/Compatibility/3_Data Collection/RAW/A-4.csv","xpyriment","Interactive Ising","3.0.2","yes","0","/","NA","NA","/","space","/","/","/","/","space","1057","NA","NA","3046","3539","9133","9036","2899","1057","35386","legacy","0","experiment","1","odd","NA","NA","NA","232464","NA","NA","NA","NA","NA","NA","328760","NA","NA","NA","232454","330594","329049","NA","232454","331595","307826","299074","331600","323557","207677","210730","214276","223416","204752","9878","331600","307830","299578","331605","323561","331605","259519","332669","259416","332769","169214","328759","NA","NA","NA","232465","9702","Hommel2002EXP01","11","13517","12","yes","1024"
"y","no","yes","rect","92.3076923077","92.3076923077","1115","1115","black","no","xpyriment","legacy","blue","red","yellow","green","legacy","0","uniform","1","1","/","1","NA","NA","0","NA","NA","NA","NA","0","NA","12","0","0","0","0","12","12","0","0","12","12","12","12","12","0","0","0","0","0","0","12","12","12","12","12","12","12","12","12","12","0","12","NA","NA","NA","0","0","01/04/16 20:11:09","Default description","no","chinese-japanese-korean","no","18","white","開始實驗B","768","legacy","C:/Users/Evonne/Desktop/test/Compatibility/3_Data Collection/RAW/A-4.csv","xpyriment","Interactive Ising","3.0.2","yes","0","/","NA","NA","/","space","/","/","/","/","space","990","NA","NA","3046","3539","9133","9036","2899","990","35386","legacy","0","experiment","1","odd","NA","NA","NA","232464","NA","NA","NA","NA","NA","NA","336616","NA","NA","NA","232454","338452","336903","NA","232454","339453","307826","299074","339457","323557","207677","210730","214276","223416","204752","9878","339457","307830","299578","339461","323561","339461","259519","340456","259416","340556","169214","336615","NA","NA","NA","232465","9702","Hommel2002EXP01","12","14507","13","yes","1024"
"n","no","yes","circle","92.8571428571","92.8571428571","1103","1103","black","no","xpyriment","legacy","red","blue","yellow","green","legacy","0","uniform","1","1","z","1","NA","NA","0","NA","NA","NA","NA","0","NA","13","0","0","0","0","13","13","0","0","13","13","13","13","13","0","0","0","0","0","0","13","13","13","13","13","13","13","13","13","13","0","13","NA","NA","NA","0","0","01/04/16 20:11:09","Default description","no","chinese-japanese-korean","no","18","white","開始實驗B","768","legacy","C:/Users/Evonne/Desktop/test/Compatibility/3_Data Collection/RAW/A-4.csv","xpyriment","Interactive Ising","3.0.2","yes","0","z","NA","NA","/","space","/","/","/","z","space","947","NA","NA","3046","3539","9133","9036","2899","947","35386","legacy","0","experiment","1","odd","NA","NA","NA","232464","NA","NA","NA","NA","NA","NA","344250","NA","NA","NA","232454","346075","344527","NA","232454","347075","307826","347078","339457","323557","207677","210730","214276","223416","204752","9878","347079","307830","347083","339461","323561","347083","259519","348036","259416","348136","169214","344249","NA","NA","NA","232465","9702","Hommel2002EXP01","13","15454","14","yes","1024"
"n","no","yes","circle","93.3333333333","93.3333333333","1095","1095","black","no","xpyriment","legacy","green","blue","red","yellow","legacy","0","uniform","1","1","z","1","NA","NA","0","NA","NA","NA","NA","0","NA","14","0","0","0","0","14","14","0","0","14","14","14","14","14","0","0","0","0","0","0","14","14","14","14","14","14","14","14","14","14","0","14","NA","NA","NA","0","0","01/04/16 20:11:09","Default description","no","chinese-japanese-korean","no","18","white","開始實驗B","768","legacy","C:/Users/Evonne/Desktop/test/Compatibility/3_Data Collection/RAW/A-4.csv","xpyriment","Interactive Ising","3.0.2","yes","0","z","NA","NA","/","space","/","/","/","z","space","983","NA","NA","3046","3539","9133","9036","2899","983","35386","legacy","0","experiment","1","odd","NA","NA","NA","232464","NA","NA","NA","NA","NA","NA","352029","NA","NA","NA","232454","353855","352306","NA","232454","354855","307826","354859","339457","323557","207677","210730","214276","223416","204752","9878","354859","307830","354863","339461","323561","354863","259519","355852","259416","355952","169214","352028","NA","NA","NA","232465","9702","Hommel2002EXP01","14","16437","15","yes","1024"
"n","no","yes","rect","93.75","93.75","1078","1078","black","no","xpyriment","legacy","green","blue","red","yellow","legacy","0","uniform","1","1","/","1","NA","NA","0","NA","NA","NA","NA","0","NA","15","0","0","0","0","15","15","0","0","15","15","15","15","15","0","0","0","0","0","0","15","15","15","15","15","15","15","15","15","15","0","15","NA","NA","NA","0","0","01/04/16 20:11:09","Default description","no","chinese-japanese-korean","no","18","white","開始實驗B","768","legacy","C:/Users/Evonne/Desktop/test/Compatibility/3_Data Collection/RAW/A-4.csv","xpyriment","Interactive Ising","3.0.2","yes","0","/","NA","NA","/","space","/","/","/","/","space","811","NA","NA","3046","3539","9133","9036","2899","811","35386","legacy","500","experiment","1","odd","NA","NA","NA","232464","NA","NA","NA","NA","NA","NA","360284","NA","NA","NA","232454","362225","360721","NA","232454","363225","307826","354859","339457","363229","207677","210730","214276","223416","204752","9878","363729","307830","354863","339461","363733","363733","259519","364550","259416","364650","169214","360284","NA","NA","NA","232465","9702","Hommel2002EXP01","15","17248","16","yes","1024"
"n","no","yes","circle","100","100","683","683","black","no","xpyriment","legacy","red","blue","green","yellow","legacy","0","uniform","1","1","z","1","NA","NA","1","NA","NA","NA","NA","1","NA","16","0","0","0","0","16","16","0","0","16","16","16","16","16","0","0","0","0","0","0","16","16","16","16","16","16","16","16","16","16","0","16","NA","NA","NA","1","0","01/04/16 20:11:09","Default description","no","chinese-japanese-korean","no","18","white","開始實驗B","768","legacy","C:/Users/Evonne/Desktop/test/Compatibility/3_Data Collection/RAW/A-4.csv","xpyriment","Interactive Ising","3.0.2","yes","0","z","NA","NA","/","space","/","/","/","z","space","683","NA","NA","3046","3539","9133","9036","2899","683","35386","legacy","500","experiment","1","odd","NA","NA","NA","364726","NA","NA","NA","NA","NA","NA","367931","NA","NA","NA","232454","369651","368105","NA","232454","370651","307826","370655","339457","363229","207677","210730","214276","223416","204752","9878","371155","307830","371159","339461","363733","371159","259519","371848","259416","371948","169214","367930","NA","NA","NA","364727","9702","Hommel2002EXP01","1","683","1","yes","1024"
"n","no","yes","circle","100","100","872","872","black","no","xpyriment","legacy","green","yellow","blue","red","legacy","0","uniform","1","1","z","1","NA","NA","1","NA","NA","NA","NA","1","NA","17","0","0","0","0","17","17","0","0","17","17","17","17","17","0","0","0","0","0","0","17","17","17","17","17","17","17","17","17","17","0","17","NA","NA","NA","1","0","01/04/16 20:11:09","Default description","no","chinese-japanese-korean","no","18","white","開始實驗B","768","legacy","C:/Users/Evonne/Desktop/test/Compatibility/3_Data Collection/RAW/A-4.csv","xpyriment","Interactive Ising","3.0.2","yes","0","z","NA","NA","/","space","/","/","/","z","space","1061","NA","NA","3046","3539","9133","9036","2899","1061","35386","legacy","500","experiment","1","odd","NA","NA","NA","364726","NA","NA","NA","NA","NA","NA","376001","NA","NA","NA","232454","377792","376245","NA","232454","378792","307826","378796","339457","363229","207677","210730","214276","223416","204752","9878","379296","307830","379300","339461","363733","379300","259519","380367","259416","380467","169214","376000","NA","NA","NA","364727","9702","Hommel2002EXP01","2","1744","2","yes","1024"
"n","no","yes","circle","100","100","915","915","black","no","xpyriment","legacy","blue","red","green","yellow","legacy","0","uniform","1","1","z","1","NA","NA","1","NA","NA","NA","NA","1","NA","18","0","0","0","0","18","18","0","0","18","18","18","18","18","0","0","0","0","0","0","18","18","18","18","18","18","18","18","18","18","0","18","NA","NA","NA","1","0","01/04/16 20:11:09","Default description","no","chinese-japanese-korean","no","18","white","開始實驗B","768","legacy","C:/Users/Evonne/Desktop/test/Compatibility/3_Data Collection/RAW/A-4.csv","xpyriment","Interactive Ising","3.0.2","yes","0","z","NA","NA","/","space","/","/","/","z","space","1002","NA","NA","3046","3539","9133","9036","2899","1002","35386","legacy","0","experiment","1","odd","NA","NA","NA","364726","NA","NA","NA","NA","NA","NA","384438","NA","NA","NA","232454","386240","384696","NA","232454","387241","307826","387244","339457","363229","207677","210730","214276","223416","204752","9878","387245","307830","387249","339461","363733","387249","259519","388256","259416","388357","169214","384438","NA","NA","NA","364727","9702","Hommel2002EXP01","3","2746","3","yes","1024"
"y","no","yes","circle","100","100","923","923","black","no","xpyriment","legacy","red","green","yellow","blue","legacy","0","uniform","1","1","z","1","NA","NA","1","NA","NA","NA","NA","1","NA","19","0","0","0","0","19","19","0","0","19","19","19","19","19","0","0","0","0","0","0","19","19","19","19","19","19","19","19","19","19","0","19","NA","NA","NA","1","0","01/04/16 20:11:09","Default description","no","chinese-japanese-korean","no","18","white","開始實驗B","768","legacy","C:/Users/Evonne/Desktop/test/Compatibility/3_Data Collection/RAW/A-4.csv","xpyriment","Interactive Ising","3.0.2","yes","0","z","NA","NA","/","space","/","/","/","z","space","948","NA","NA","3046","3539","9133","9036","2899","948","35386","legacy","500","experiment","1","odd","NA","NA","NA","364726","NA","NA","NA","NA","NA","NA","392409","NA","NA","NA","232454","394230","392685","NA","232454","395231","395235","387244","339457","363229","207677","210730","214276","223416","204752","9878","395735","395739","387249","339461","363733","395739","259519","396692","259416","396793","169214","392409","NA","NA","NA","364727","9702","Hommel2002EXP01","4","3694","4","yes","1024"
"n","no","yes","rect","100","100","892","892","black","no","xpyriment","legacy","blue","red","yellow","green","legacy","0","uniform","1","1","/","1","NA","NA","1","NA","NA","NA","NA","1","NA","20","0","0","0","0","20","20","0","0","20","20","20","20","20","0","0","0","0","0","0","20","20","20","20","20","20","20","20","20","20","0","20","NA","NA","NA","1","0","01/04/16 20:11:09","Default description","no","chinese-japanese-korean","no","18","white","開始實驗B","768","legacy","C:/Users/Evonne/Desktop/test/Compatibility/3_Data Collection/RAW/A-4.csv","xpyriment","Interactive Ising","3.0.2","yes","0","/","NA","NA","/","space","/","/","/","/","space","768","NA","NA","3046","3539","9133","9036","2899","768","35386","legacy","0","experiment","1","odd","NA","NA","NA","364726","NA","NA","NA","NA","NA","NA","400667","NA","NA","NA","232454","402491","400948","NA","232454","403491","395235","387244","339457","403496","207677","210730","214276","223416","204752","9878","403496","395739","387249","339461","403500","403500","259519","404274","259416","404374","169214","400666","NA","NA","NA","364727","9702","Hommel2002EXP01","5","4462","5","yes","1024"
"y","no","yes","rect","100","100","904","904","black","no","xpyriment","legacy","yellow","green","red","blue","legacy","0","uniform","1","1","/","1","NA","NA","1","NA","NA","NA","NA","1","NA","21","0","0","0","0","21","21","0","0","21","21","21","21","21","0","0","0","0","0","0","21","21","21","21","21","21","21","21","21","21","0","21","NA","NA","NA","1","0","01/04/16 20:11:09","Default description","no","chinese-japanese-korean","no","18","white","開始實驗B","768","legacy","C:/Users/Evonne/Desktop/test/Compatibility/3_Data Collection/RAW/A-4.csv","xpyriment","Interactive Ising","3.0.2","yes","0","/","NA","NA","/","space","/","/","/","/","space","967","NA","NA","3046","3539","9133","9036","2899","967","35386","legacy","500","experiment","1","odd","NA","NA","NA","364726","NA","NA","NA","NA","NA","NA","408495","NA","NA","NA","232454","410414","408911","NA","232454","411415","395235","387244","411419","403496","207677","210730","214276","223416","204752","9878","411919","395739","387249","411923","403500","411923","259519","412896","259416","412996","169214","408495","NA","NA","NA","364727","9702","Hommel2002EXP01","6","5429","6","yes","1024"
"y","no","yes","rect","100","100","916","916","black","no","xpyriment","legacy","yellow","green","red","blue","legacy","0","uniform","1","1","/","1","NA","NA","1","NA","NA","NA","NA","1","NA","22","0","0","0","0","22","22","0","0","22","22","22","22","22","0","0","0","0","0","0","22","22","22","22","22","22","22","22","22","22","0","22","NA","NA","NA","1","0","01/04/16 20:11:09","Default description","no","chinese-japanese-korean","no","18","white","開始實驗B","768","legacy","C:/Users/Evonne/Desktop/test/Compatibility/3_Data Collection/RAW/A-4.csv","xpyriment","Interactive Ising","3.0.2","yes","0","/","NA","NA","/","space","/","/","/","/","space","986","NA","NA","3046","3539","9133","9036","2899","986","35386","legacy","0","experiment","1","odd","NA","NA","NA","364726","NA","NA","NA","NA","NA","NA","416611","NA","NA","NA","232454","418308","416762","NA","232454","419308","395235","387244","419312","403496","207677","210730","214276","223416","204752","9878","419312","395739","387249","419316","403500","419316","259519","420308","259416","420408","169214","416610","NA","NA","NA","364727","9702","Hommel2002EXP01","7","6415","7","yes","1024"
"y","no","yes","rect","100","100","893","893","black","no","xpyriment","legacy","green","blue","yellow","red","legacy","0","uniform","1","1","/","1","NA","NA","1","NA","NA","NA","NA","1","NA","23","0","0","0","0","23","23","0","0","23","23","23","23","23","0","0","0","0","0","0","23","23","23","23","23","23","23","23","23","23","0","23","NA","NA","NA","1","0","01/04/16 20:11:09","Default description","no","chinese-japanese-korean","no","18","white","開始實驗B","768","legacy","C:/Users/Evonne/Desktop/test/Compatibility/3_Data Collection/RAW/A-4.csv","xpyriment","Interactive Ising","3.0.2","yes","0","/","NA","NA","/","space","/","/","/","/","space","730","NA","NA","3046","3539","9133","9036","2899","730","35386","legacy","0","experiment","1","odd","NA","NA","NA","364726","NA","NA","NA","NA","NA","NA","424449","NA","NA","NA","232454","426221","424676","NA","232454","427221","395235","387244","427225","403496","207677","210730","214276","223416","204752","9878","427225","395739","387249","427229","403500","427229","259519","427964","259416","428065","169214","424449","NA","NA","NA","364727","9702","Hommel2002EXP01","8","7145","8","yes","1024"
"n","no","yes","rect","100","100","905","905","black","no","xpyriment","legacy","red","green","yellow","blue","legacy","0","uniform","1","1","/","1","NA","NA","1","NA","NA","NA","NA","1","NA","24","0","0","0","0","24","24","0","0","24","24","24","24","24","0","0","0","0","0","0","24","24","24","24","24","24","24","24","24","24","0","24","NA","NA","NA","1","0","01/04/16 20:11:09","Default description","no","chinese-japanese-korean","no","18","white","開始實驗B","768","legacy","C:/Users/Evonne/Desktop/test/Compatibility/3_Data Collection/RAW/A-4.csv","xpyriment","Interactive Ising","3.0.2","yes","0","/","NA","NA","/","space","/","/","/","/","space","1000","NA","NA","3046","3539","9133","9036","2899","1000","35386","legacy","500","experiment","1","odd","NA","NA","NA","364726","NA","NA","NA","NA","NA","NA","431884","NA","NA","NA","232454","433712","432165","NA","232454","434712","395235","387244","427225","434716","207677","210730","214276","223416","204752","9878","435216","395739","387249","427229","435220","435220","259519","436225","259416","436326","169214","431884","NA","NA","NA","364727","9702","Hommel2002EXP01","9","8145","9","yes","1024"
"n","no","yes","rect","100","100","882","882","black","no","xpyriment","legacy","yellow","red","blue","green","legacy","0","uniform","1","1","/","1","NA","NA","1","NA","NA","NA","NA","1","NA","25","0","0","0","0","25","25","0","0","25","25","25","25","25","0","0","0","0","0","0","25","25","25","25","25","25","25","25","25","25","0","25","NA","NA","NA","1","0","01/04/16 20:11:09","Default description","no","chinese-japanese-korean","no","18","white","開始實驗B","768","legacy","C:/Users/Evonne/Desktop/test/Compatibility/3_Data Collection/RAW/A-4.csv","xpyriment","Interactive Ising","3.0.2","yes","0","/","NA","NA","/","space","/","/","/","/","space","676","NA","NA","3046","3539","9133","9036","2899","676","35386","legacy","500","experiment","1","odd","NA","NA","NA","364726","NA","NA","NA","NA","NA","NA","440087","NA","NA","NA","232454","441914","440365","NA","232454","442915","395235","387244","427225","442919","207677","210730","214276","223416","204752","9878","443419","395739","387249","427229","443423","443423","259519","444105","259416","444205","169214","440087","NA","NA","NA","364727","9702","Hommel2002EXP01","10","8821","10","yes","1024"
"y","no","yes","circle","100","100","865","865","black","no","xpyriment","legacy","green","blue","yellow","red","legacy","0","uniform","1","1","z","1","NA","NA","1","NA","NA","NA","NA","1","NA","26","0","0","0","0","26","26","0","0","26","26","26","26","26","0","0","0","0","0","0","26","26","26","26","26","26","26","26","26","26","0","26","NA","NA","NA","1","0","01/04/16 20:11:09","Default description","no","chinese-japanese-korean","no","18","white","開始實驗B","768","legacy","C:/Users/Evonne/Desktop/test/Compatibility/3_Data Collection/RAW/A-4.csv","xpyriment","Interactive Ising","3.0.2","yes","0","z","NA","NA","/","space","/","/","/","z","space","701","NA","NA","3046","3539","9133","9036","2899","701","35386","legacy","500","experiment","1","odd","NA","NA","NA","364726","NA","NA","NA","NA","NA","NA","448009","NA","NA","NA","232454","449841","448300","NA","232454","450842","450846","387244","427225","442919","207677","210730","214276","223416","204752","9878","451346","451350","387249","427229","443423","451350","259519","452057","259416","452157","169214","448008","NA","NA","NA","364727","9702","Hommel2002EXP01","11","9522","11","yes","1024"
"y","no","yes","rect","100","100","854","854","black","no","xpyriment","legacy","red","yellow","green","blue","legacy","0","uniform","1","1","/","1","NA","NA","1","NA","NA","NA","NA","1","NA","27","0","0","0","0","27","27","0","0","27","27","27","27","27","0","0","0","0","0","0","27","27","27","27","27","27","27","27","27","27","0","27","NA","NA","NA","1","0","01/04/16 20:11:09","Default description","no","chinese-japanese-korean","no","18","white","開始實驗B","768","legacy","C:/Users/Evonne/Desktop/test/Compatibility/3_Data Collection/RAW/A-4.csv","xpyriment","Interactive Ising","3.0.2","yes","0","/","NA","NA","/","space","/","/","/","/","space","729","NA","NA","3046","3539","9133","9036","2899","729","35386","legacy","500","experiment","1","odd","NA","NA","NA","364726","NA","NA","NA","NA","NA","NA","456469","NA","NA","NA","232454","458497","456993","NA","232454","459497","450846","387244","459501","442919","207677","210730","214276","223416","204752","9878","460001","451350","387249","460005","443423","460005","259519","460739","259416","460840","169214","456468","NA","NA","NA","364727","9702","Hommel2002EXP01","12","10251","12","yes","1024"
"y","no","yes","circle","100","100","872","872","black","no","xpyriment","legacy","blue","yellow","red","green","legacy","0","uniform","1","1","z","1","NA","NA","1","NA","NA","NA","NA","1","NA","28","0","0","0","0","28","28","0","0","28","28","28","28","28","0","0","0","0","0","0","28","28","28","28","28","28","28","28","28","28","0","28","NA","NA","NA","1","0","01/04/16 20:11:09","Default description","no","chinese-japanese-korean","no","18","white","開始實驗B","768","legacy","C:/Users/Evonne/Desktop/test/Compatibility/3_Data Collection/RAW/A-4.csv","xpyriment","Interactive Ising","3.0.2","yes","0","z","NA","NA","/","space","/","/","/","z","space","1092","NA","NA","3046","3539","9133","9036","2899","1092","35386","legacy","0","experiment","1","odd","NA","NA","NA","364726","NA","NA","NA","NA","NA","NA","464021","NA","NA","NA","232454","465733","464184","NA","232454","466733","466737","387244","459501","442919","207677","210730","214276","223416","204752","9878","466737","466741","387249","460005","443423","466742","259519","467840","259416","467940","169214","464021","NA","NA","NA","364727","9702","Hommel2002EXP01","13","11343","13","yes","1024"
"y","no","yes","circle","100","100","879","879","black","no","xpyriment","legacy","red","yellow","green","blue","legacy","0","uniform","1","1","z","1","NA","NA","1","NA","NA","NA","NA","1","NA","29","0","0","0","0","29","29","0","0","29","29","29","29","29","0","0","0","0","0","0","29","29","29","29","29","29","29","29","29","29","0","29","NA","NA","NA","1","0","01/04/16 20:11:09","Default description","no","chinese-japanese-korean","no","18","white","開始實驗B","768","legacy","C:/Users/Evonne/Desktop/test/Compatibility/3_Data Collection/RAW/A-4.csv","xpyriment","Interactive Ising","3.0.2","yes","0","z","NA","NA","/","space","/","/","/","z","space","970","NA","NA","3046","3539","9133","9036","2899","970","35386","legacy","0","experiment","1","odd","NA","NA","NA","364726","NA","NA","NA","NA","NA","NA","472134","NA","NA","NA","232454","473947","472395","NA","232454","474948","474953","387244","459501","442919","207677","210730","214276","223416","204752","9878","474953","474957","387249","460005","443423","474957","259519","475933","259416","476034","169214","472133","NA","NA","NA","364727","9702","Hommel2002EXP01","14","12313","14","yes","1024"
"n","no","yes","rect","100","100","887","887","black","no","xpyriment","legacy","red","yellow","green","blue","legacy","0","uniform","1","1","/","1","NA","NA","1","NA","NA","NA","NA","1","NA","30","0","0","0","0","30","30","0","0","30","30","30","30","30","0","0","0","0","0","0","30","30","30","30","30","30","30","30","30","30","0","30","NA","NA","NA","1","0","01/04/16 20:11:09","Default description","no","chinese-japanese-korean","no","18","white","開始實驗B","768","legacy","C:/Users/Evonne/Desktop/test/Compatibility/3_Data Collection/RAW/A-4.csv","xpyriment","Interactive Ising","3.0.2","yes","0","/","NA","NA","/","space","/","/","/","/","space","1005","NA","NA","3046","3539","9133","9036","2899","1005","35386","legacy","0","experiment","1","odd","NA","NA","NA","364726","NA","NA","NA","NA","NA","NA","479794","NA","NA","NA","232454","481593","480049","NA","232454","482594","474953","387244","459501","482599","207677","210730","214276","223416","204752","9878","482599","474957","387249","460005","482603","482603","259519","483616","259416","483716","169214","479793","NA","NA","NA","364727","9702","Hommel2002EXP01","15","13318","15","yes","1024"
"n","no","yes","circle","100","100","887","887","black","no","xpyriment","legacy","red","blue","green","yellow","legacy","0","uniform","1","1","z","1","NA","NA","1","NA","NA","NA","NA","1","NA","31","0","0","0","0","31","31","0","0","31","31","31","31","31","0","0","0","0","0","0","31","31","31","31","31","31","31","31","31","31","0","31","NA","NA","NA","1","0","01/04/16 20:11:09","Default description","no","chinese-japanese-korean","no","18","white","開始實驗B","768","legacy","C:/Users/Evonne/Desktop/test/Compatibility/3_Data Collection/RAW/A-4.csv","xpyriment","Interactive Ising","3.0.2","yes","0","z","NA","NA","/","space","/","/","/","z","space","887","NA","NA","3046","3539","9133","9036","2899","887","35386","legacy","0","experiment","1","odd","NA","NA","NA","364726","NA","NA","NA","NA","NA","NA","487693","NA","NA","NA","232454","489524","487978","NA","232454","490525","474953","490529","459501","482599","207677","210730","214276","223416","204752","9878","490529","474957","490533","460005","482603","490533","259519","491426","259416","491526","169214","487692","NA","NA","NA","364727","9702","Hommel2002EXP01","16","14205","16","yes","1024"
"y","no","yes","rect","100","100","1184","1184","black","no","xpyriment","legacy","yellow","red","blue","green","legacy","0","uniform","1","1","/","1","NA","NA","2","NA","NA","NA","NA","2","0","32","0","0","0","0","32","32","0","0","32","32","32","32","32","0","0","0","0","0","0","32","32","32","32","32","32","32","32","32","32","0","32","NA","NA","NA","2","0","01/04/16 20:11:09","Default description","no","chinese-japanese-korean","no","18","white","開始實驗B","768","legacy","C:/Users/Evonne/Desktop/test/Compatibility/3_Data Collection/RAW/A-4.csv","xpyriment","Interactive Ising","3.0.2","yes","0","/","NA","space","/","space","/","/","/","/","space","1184","NA","11327","3046","3539","9133","9036","2899","1184","35386","legacy","0","experiment","1","odd","NA","NA","NA","503577","NA","NA","NA","NA","NA","492243","507248","NA","NA","NA","232454","509067","507520","NA","232454","510067","474953","490529","510071","482599","207677","210730","214276","223416","204752","9878","510071","474957","490533","510075","482603","510076","259519","511266","259416","511366","169214","507247","NA","NA","NA","503577","9702","Hommel2002EXP01","1","1184","1","yes","1024"
"n","no","yes","circle","100","100","1150","1150","black","no","xpyriment","legacy","blue","red","green","yellow","legacy","0","uniform","1","1","z","1","NA","NA","2","NA","NA","NA","NA","2","0","33","0","0","0","0","33","33","0","0","33","33","33","33","33","0","0","0","0","0","0","33","33","33","33","33","33","33","33","33","33","0","33","NA","NA","NA","2","0","01/04/16 20:11:09","Default description","no","chinese-japanese-korean","no","18","white","開始實驗B","768","legacy","C:/Users/Evonne/Desktop/test/Compatibility/3_Data Collection/RAW/A-4.csv","xpyriment","Interactive Ising","3.0.2","yes","0","z","NA","space","/","space","/","/","/","z","space","1116","NA","11327","3046","3539","9133","9036","2899","1116","35386","legacy","0","experiment","1","odd","NA","NA","NA","503577","NA","NA","NA","NA","NA","492243","515014","NA","NA","NA","232454","516843","515295","NA","232454","517843","474953","517847","510071","482599","207677","210730","214276","223416","204752","9878","517847","474957","518069","510075","482603","518070","259519","519191","259416","519292","169214","515014","NA","NA","NA","503577","9702","Hommel2002EXP01","2","2300","2","yes","1024"
"n","no","yes","rect","100","100","1183","1183","black","no","xpyriment","legacy","yellow","blue","red","green","legacy","0","uniform","1","1","/","1","NA","NA","2","NA","NA","NA","NA","2","0","34","0","0","0","0","34","34","0","0","34","34","34","34","34","0","0","0","0","0","0","34","34","34","34","34","34","34","34","34","34","0","34","NA","NA","NA","2","0","01/04/16 20:11:09","Default description","no","chinese-japanese-korean","no","18","white","開始實驗B","768","legacy","C:/Users/Evonne/Desktop/test/Compatibility/3_Data Collection/RAW/A-4.csv","xpyriment","Interactive Ising","3.0.2","yes","0","/","NA","space","/","space","/","/","/","/","space","1251","NA","11327","3046","3539","9133","9036","2899","1251","35386","legacy","0","experiment","1","odd","NA","NA","NA","503577","NA","NA","NA","NA","NA","492243","522651","NA","NA","NA","232454","524348","522799","NA","232454","525348","474953","517847","510071","525352","207677","210730","214276","223416","204752","9878","525352","474957","518069","510075","525356","525356","259519","526613","259416","526714","169214","522650","NA","NA","NA","503577","9702","Hommel2002EXP01","3","3551","3","yes","1024"
"n","no","yes","rect","100","100","1100","1100","black","no","xpyriment","legacy","yellow","blue","green","red","legacy","0","uniform","1","1","/","1","NA","NA","2","NA","NA","NA","NA","2","0","35","0","0","0","0","35","35","0","0","35","35","35","35","35","0","0","0","0","0","0","35","35","35","35","35","35","35","35","35","35","0","35","NA","NA","NA","2","0","01/04/16 20:11:09","Default description","no","chinese-japanese-korean","no","18","white","開始實驗B","768","legacy","C:/Users/Evonne/Desktop/test/Compatibility/3_Data Collection/RAW/A-4.csv","xpyriment","Interactive Ising","3.0.2","yes","0","/","NA","space","/","space","/","/","/","/","space","850","NA","11327","3046","3539","9133","9036","2899","850","35386","legacy","0","experiment","1","odd","NA","NA","NA","503577","NA","NA","NA","NA","NA","492243","530943","NA","NA","NA","232454","532682","531135","NA","232454","533683","474953","517847","510071","533687","207677","210730","214276","223416","204752","9878","533687","474957","518069","510075","533691","533692","259519","534548","259416","534648","169214","530942","NA","NA","NA","503577","9702","Hommel2002EXP01","4","4401","4","yes","1024"
"n","no","yes","circle","100","100","1041","1041","black","no","xpyriment","legacy","blue","red","green","yellow","legacy","0","uniform","1","1","z","1","NA","NA","2","NA","NA","NA","NA","2","0","36","0","0","0","0","36","36","0","0","36","36","36","36","36","0","0","0","0","0","0","36","36","36","36","36","36","36","36","36","36","0","36","NA","NA","NA","2","0","01/04/16 20:11:09","Default description","no","chinese-japanese-korean","no","18","white","開始實驗B","768","legacy","C:/Users/Evonne/Desktop/test/Compatibility/3_Data Collection/RAW/A-4.csv","xpyriment","Interactive Ising","3.0.2","yes","0","z","NA","space","/","space","/","/","/","z","space","806","NA","11327","3046","3539","9133","9036","2899","806","35386","legacy","500","experiment","1","odd","NA","NA","NA","503577","NA","NA","NA","NA","NA","492243","538852","NA","NA","NA","232454","540701","539154","NA","232454","541701","474953","541705","510071","533687","207677","210730","214276","223416","204752","9878","542205","474957","542209","510075","533691","542209","259519","543021","259416","543121","169214","538852","NA","NA","NA","503577","9702","Hommel2002EXP01","5","5207","5","yes","1024"
"n","no","yes","rect","100","100","1009","1009","black","no","xpyriment","legacy","green","red","yellow","blue","legacy","0","uniform","1","1","/","1","NA","NA","2","NA","NA","NA","NA","2","0","37","0","0","0","0","37","37","0","0","37","37","37","37","37","0","0","0","0","0","0","37","37","37","37","37","37","37","37","37","37","0","37","NA","NA","NA","2","0","01/04/16 20:11:09","Default description","no","chinese-japanese-korean","no","18","white","開始實驗B","768","legacy","C:/Users/Evonne/Desktop/test/Compatibility/3_Data Collection/RAW/A-4.csv","xpyriment","Interactive Ising","3.0.2","yes","0","/","NA","space","/","space","/","/","/","/","space","849","NA","11327","3046","3539","9133","9036","2899","849","35386","legacy","500","experiment","1","odd","NA","NA","NA","503577","NA","NA","NA","NA","NA","492243","547077","NA","NA","NA","232454","548923","547370","NA","232454","549923","474953","541705","510071","549928","207677","210730","214276","223416","204752","9878","550428","474957","542209","510075","550433","550433","259519","551287","259416","551388","169214","547076","NA","NA","NA","503577","9702","Hommel2002EXP01","6","6056","6","yes","1024"
"y","no","yes","circle","100","100","993","993","black","no","xpyriment","legacy","blue","yellow","red","green","legacy","0","uniform","1","1","z","1","NA","NA","2","NA","NA","NA","NA","2","0","38","0","0","0","0","38","38","0","0","38","38","38","38","38","0","0","0","0","0","0","38","38","38","38","38","38","38","38","38","38","0","38","NA","NA","NA","2","0","01/04/16 20:11:09","Default description","no","chinese-japanese-korean","no","18","white","開始實驗B","768","legacy","C:/Users/Evonne/Desktop/test/Compatibility/3_Data Collection/RAW/A-4.csv","xpyriment","Interactive Ising","3.0.2","yes","0","z","NA","space","/","space","/","/","/","z","space","896","NA","11327","3046","3539","9133","9036","2899","896","35386","legacy","500","experiment","1","odd","NA","NA","NA","503577","NA","NA","NA","NA","NA","492243","554919","NA","NA","NA","232454","556755","555207","NA","232454","557755","557759","541705","510071","549928","207677","210730","214276","223416","204752","9878","558259","558263","542209","510075","550433","558263","259519","559165","259416","559265","169214","554918","NA","NA","NA","503577","9702","Hommel2002EXP01","7","6952","7","yes","1024"
"y","no","yes","rect","100","100","984","984","black","no","xpyriment","legacy","green","red","yellow","blue","legacy","0","uniform","1","1","/","1","NA","NA","2","NA","NA","NA","NA","2","0","39","0","0","0","0","39","39","0","0","39","39","39","39","39","0","0","0","0","0","0","39","39","39","39","39","39","39","39","39","39","0","39","NA","NA","NA","2","0","01/04/16 20:11:09","Default description","no","chinese-japanese-korean","no","18","white","開始實驗B","768","legacy","C:/Users/Evonne/Desktop/test/Compatibility/3_Data Collection/RAW/A-4.csv","xpyriment","Interactive Ising","3.0.2","yes","0","/","NA","space","/","space","/","/","/","/","space","920","NA","11327","3046","3539","9133","9036","2899","920","35386","legacy","500","experiment","1","odd","NA","NA","NA","503577","NA","NA","NA","NA","NA","492243","563154","NA","NA","NA","232454","564985","563434","NA","232454","565985","557759","541705","565989","549928","207677","210730","214276","223416","204752","9878","566489","558263","542209","566493","550433","566493","259519","567419","259416","567520","169214","563153","NA","NA","NA","503577","9702","Hommel2002EXP01","8","7872","8","yes","1024"
"y","no","yes","rect","100","100","1007","1007","black","no","xpyriment","legacy","yellow","green","red","blue","legacy","0","uniform","1","1","/","1","NA","NA","2","NA","NA","NA","NA","2","0","40","0","0","0","0","40","40","0","0","40","40","40","40","40","0","0","0","0","0","0","40","40","40","40","40","40","40","40","40","40","0","40","NA","NA","NA","2","0","01/04/16 20:11:09","Default description","no","chinese-japanese-korean","no","18","white","開始實驗B","768","legacy","C:/Users/Evonne/Desktop/test/Compatibility/3_Data Collection/RAW/A-4.csv","xpyriment","Interactive Ising","3.0.2","yes","0","/","NA","space","/","space","/","/","/","/","space","1199","NA","11327","3046","3539","9133","9036","2899","1199","35386","legacy","0","experiment","1","odd","NA","NA","NA","503577","NA","NA","NA","NA","NA","492243","571739","NA","NA","NA","232454","573707","572204","NA","232454","574707","557759","541705","574711","549928","207677","210730","214276","223416","204752","9878","574711","558263","542209","574715","550433","574716","259519","575921","259416","576021","169214","571738","NA","NA","NA","503577","9702","Hommel2002EXP01","9","9071","9","yes","1024"
"y","no","yes","circle","90","90","1107","1107","black","no","xpyriment","legacy","red","yellow","blue","green","legacy","0","uniform","0","0","z","1","NA","NA","2","NA","NA","NA","NA","2","0","41","0","0","0","0","41","41","0","0","41","41","41","41","41","0","0","0","0","0","0","41","41","41","41","41","41","41","41","41","41","0","41","NA","NA","NA","2","0","01/04/16 20:11:09","Default description","no","chinese-japanese-korean","no","18","white","開始實驗B","768","legacy","C:/Users/Evonne/Desktop/test/Compatibility/3_Data Collection/RAW/A-4.csv","xpyriment","Interactive Ising","3.0.2","yes","0","None","NA","space","/","space","/","/","/","None","space","2000","NA","11327","3046","3539","9133","9036","2899","2000","35386","legacy","0","experiment","1","odd","NA","NA","NA","503577","NA","NA","NA","NA","NA","492243","579157","NA","NA","NA","232454","580877","579336","NA","232454","581877","581881","541705","574711","549928","207677","210730","214276","223416","204752","9878","581881","581885","542209","574715","550433","581886","584008","575921","583891","584109","169214","579157","NA","NA","NA","503577","9702","Hommel2002EXP01","9","11071","10","yes","1024"
"n","no","yes","circle","90.9090909091","90.9090909091","1095","1095","black","no","xpyriment","legacy","blue","red","yellow","green","legacy","0","uniform","1","1","z","1","NA","NA","2","NA","NA","NA","NA","2","0","42","0","0","0","0","42","42","0","0","42","42","42","42","42","0","0","0","0","0","0","42","42","42","42","42","42","42","42","42","42","0","42","NA","NA","NA","2","0","01/04/16 20:11:09","Default description","no","chinese-japanese-korean","no","18","white","開始實驗B","768","legacy","C:/Users/Evonne/Desktop/test/Compatibility/3_Data Collection/RAW/A-4.csv","xpyriment","Interactive Ising","3.0.2","yes","0","z","NA","space","/","space","/","/","/","z","space","975","NA","11327","3046","3539","9133","9036","2899","975","35386","legacy","0","experiment","1","odd","NA","NA","NA","503577","NA","NA","NA","NA","NA","492243","588332","NA","NA","NA","232454","590120","588566","NA","232454","591121","581881","591125","574711","549928","207677","210730","214276","223416","204752","9878","591126","581885","591130","574715","550433","591131","584008","592113","583891","592213","169214","588331","NA","NA","NA","503577","9702","Hommel2002EXP01","10","12046","11","yes","1024"
"y","no","yes","circle","91.6666666667","91.6666666667","1087","1087","black","no","xpyriment","legacy","red","green","blue","yellow","legacy","0","uniform","1","1","z","1","NA","NA","2","NA","NA","NA","NA","2","0","43","0","0","0","0","43","43","0","0","43","43","43","43","43","0","0","0","0","0","0","43","43","43","43","43","43","43","43","43","43","0","43","NA","NA","NA","2","0","01/04/16 20:11:09","Default description","no","chinese-japanese-korean","no","18","white","開始實驗B","768","legacy","C:/Users/Evonne/Desktop/test/Compatibility/3_Data Collection/RAW/A-4.csv","xpyriment","Interactive Ising","3.0.2","yes","0","z","NA","space","/","space","/","/","/","z","space","1000","NA","11327","3046","3539","9133","9036","2899","1000","35386","legacy","0","experiment","1","odd","NA","NA","NA","503577","NA","NA","NA","NA","NA","492243","596558","NA","NA","NA","232454","598299","596752","NA","232454","599300","599304","591125","574711","549928","207677","210730","214276","223416","204752","9878","599305","599309","591130","574715","550433","599310","584008","600317","583891","600417","169214","596557","NA","NA","NA","503577","9702","Hommel2002EXP01","11","13046","12","yes","1024"
"n","no","yes","circle","92.3076923077","92.3076923077","1064","1064","black","no","xpyriment","legacy","red","blue","green","yellow","legacy","0","uniform","1","1","z","1","NA","NA","2","NA","NA","NA","NA","2","0","44","0","0","0","0","44","44","0","0","44","44","44","44","44","0","0","0","0","0","0","44","44","44","44","44","44","44","44","44","44","0","44","NA","NA","NA","2","0","01/04/16 20:11:09","Default description","no","chinese-japanese-korean","no","18","white","開始實驗B","768","legacy","C:/Users/Evonne/Desktop/test/Compatibility/3_Data Collection/RAW/A-4.csv","xpyriment","Interactive Ising","3.0.2","yes","0","z","NA","space","/","space","/","/","/","z","space","793","NA","11327","3046","3539","9133","9036","2899","793","35386","legacy","500","experiment","1","odd","NA","NA","NA","503577","NA","NA","NA","NA","NA","492243","604411","NA","NA","NA","232454","606110","604564","NA","232454","607111","599304","607115","574711","549928","207677","210730","214276","223416","204752","9878","607615","599309","607619","574715","550433","607619","584008","608417","583891","608518","169214","604410","NA","NA","NA","503577","9702","Hommel2002EXP01","12","13839","13","yes","1024"
"y","no","yes","circle","92.8571428571","92.8571428571","1068","1068","black","no","xpyriment","legacy","blue","yellow","red","green","legacy","0","uniform","1","1","z","1","NA","NA","2","NA","NA","NA","NA","2","0","45","0","0","0","0","45","45","0","0","45","45","45","45","45","0","0","0","0","0","0","45","45","45","45","45","45","45","45","45","45","0","45","NA","NA","NA","2","0","01/04/16 20:11:09","Default description","no","chinese-japanese-korean","no","18","white","開始實驗B","768","legacy","C:/Users/Evonne/Desktop/test/Compatibility/3_Data Collection/RAW/A-4.csv","xpyriment","Interactive Ising","3.0.2","yes","0","z","NA","space","/","space","/","/","/","z","space","1114","NA","11327","3046","3539","9133","9036","2899","1114","35386","legacy","500","experiment","1","odd","NA","NA","NA","503577","NA","NA","NA","NA","NA","492243","612801","NA","NA","NA","232454","614484","612937","NA","232454","615484","615489","607115","574711","549928","207677","210730","214276","223416","204752","9878","615989","615995","607619","574715","550433","615995","584008","617116","583891","617217","169214","612800","NA","NA","NA","503577","9702","Hommel2002EXP01","13","14953","14","yes","1024"
"n","no","yes","rect","93.3333333333","93.3333333333","1050","1050","black","no","xpyriment","legacy","green","yellow","blue","red","legacy","0","uniform","1","1","/","1","NA","NA","2","NA","NA","NA","NA","2","0","46","0","0","0","0","46","46","0","0","46","46","46","46","46","0","0","0","0","0","0","46","46","46","46","46","46","46","46","46","46","0","46","NA","NA","NA","2","0","01/04/16 20:11:09","Default description","no","chinese-japanese-korean","no","18","white","開始實驗B","768","legacy","C:/Users/Evonne/Desktop/test/Compatibility/3_Data Collection/RAW/A-4.csv","xpyriment","Interactive Ising","3.0.2","yes","0","/","NA","space","/","space","/","/","/","/","space","802","NA","11327","3046","3539","9133","9036","2899","802","35386","legacy","500","experiment","1","odd","NA","NA","NA","503577","NA","NA","NA","NA","NA","492243","621608","NA","NA","NA","232454","623447","621944","NA","232454","624447","615489","607115","574711","624451","207677","210730","214276","223416","204752","9878","624951","615995","607619","574715","624955","624955","584008","625764","583891","625864","169214","621608","NA","NA","NA","503577","9702","Hommel2002EXP01","14","15755","15","yes","1024"
"y","no","yes","rect","93.75","93.75","1032","1032","black","no","xpyriment","legacy","yellow","green","blue","red","legacy","0","uniform","1","1","/","1","NA","NA","2","NA","NA","NA","NA","2","0","47","0","0","0","0","47","47","0","0","47","47","47","47","47","0","0","0","0","0","0","47","47","47","47","47","47","47","47","47","47","0","47","NA","NA","NA","2","0","01/04/16 20:11:09","Default description","no","chinese-japanese-korean","no","18","white","開始實驗B","768","legacy","C:/Users/Evonne/Desktop/test/Compatibility/3_Data Collection/RAW/A-4.csv","xpyriment","Interactive Ising","3.0.2","yes","0","/","NA","space","/","space","/","/","/","/","space","763","NA","11327","3046","3539","9133","9036","2899","763","35386","legacy","500","experiment","1","odd","NA","NA","NA","503577","NA","NA","NA","NA","NA","492243","629786","NA","NA","NA","232454","631466","629919","NA","232454","632467","615489","607115","632471","624451","207677","210730","214276","223416","204752","9878","632971","615995","607619","632975","624955","632976","584008","633745","583891","633845","169214","629785","NA","NA","NA","503577","9702","Hommel2002EXP01","15","16518","16","yes","1024"
"n","no","yes","rect","100","100","1002","1002","black","no","xpyriment","legacy","yellow","green","blue","red","legacy","0","uniform","1","1","/","1","NA","NA","3","NA","NA","NA","NA","3","0","48","0","0","0","0","48","48","0","0","48","48","48","48","48","0","0","0","0","0","0","48","48","48","48","48","48","48","48","48","48","0","48","NA","NA","NA","3","0","01/04/16 20:11:09","Default description","no","chinese-japanese-korean","no","18","white","開始實驗B","768","legacy","C:/Users/Evonne/Desktop/test/Compatibility/3_Data Collection/RAW/A-4.csv","xpyriment","Interactive Ising","3.0.2","yes","0","/","NA","space","/","space","/","/","/","/","space","1002","NA","11327","3046","3539","9133","9036","2899","1002","35386","legacy","0","experiment","1","odd","NA","NA","NA","633938","NA","NA","NA","NA","NA","492243","637690","NA","NA","NA","232454","639517","637973","NA","232454","640517","615489","607115","632471","640521","207677","210730","214276","223416","204752","9878","640521","615995","607619","632975","640525","640525","584008","641532","583891","641633","169214","637690","NA","NA","NA","633938","9702","Hommel2002EXP01","1","1002","1","yes","1024"
"y","no","yes","rect","100","100","906","906","black","no","xpyriment","legacy","yellow","blue","red","green","legacy","0","uniform","1","1","/","1","NA","NA","3","NA","NA","NA","NA","3","0","49","0","0","0","0","49","49","0","0","49","49","49","49","49","0","0","0","0","0","0","49","49","49","49","49","49","49","49","49","49","0","49","NA","NA","NA","3","0","01/04/16 20:11:09","Default description","no","chinese-japanese-korean","no","18","white","開始實驗B","768","legacy","C:/Users/Evonne/Desktop/test/Compatibility/3_Data Collection/RAW/A-4.csv","xpyriment","Interactive Ising","3.0.2","yes","0","/","NA","space","/","space","/","/","/","/","space","810","NA","11327","3046","3539","9133","9036","2899","810","35386","legacy","0","experiment","1","odd","NA","NA","NA","633938","NA","NA","NA","NA","NA","492243","645514","NA","NA","NA","232454","647319","645770","NA","232454","648320","615489","607115","648324","640521","207677","210730","214276","223416","204752","9878","648324","615995","607619","648328","640525","648329","584008","649145","583891","649245","169214","645513","NA","NA","NA","633938","9702","Hommel2002EXP01","2","1812","2","yes","1024"
"y","no","yes","circle","100","100","925","925","black","no","xpyriment","legacy","blue","green","yellow","red","legacy","0","uniform","1","1","z","1","NA","NA","3","NA","NA","NA","NA","3","0","50","0","0","0","0","50","50","0","0","50","50","50","50","50","0","0","0","0","0","0","50","50","50","50","50","50","50","50","50","50","0","50","NA","NA","NA","3","0","01/04/16 20:11:09","Default description","no","chinese-japanese-korean","no","18","white","開始實驗B","768","legacy","C:/Users/Evonne/Desktop/test/Compatibility/3_Data Collection/RAW/A-4.csv","xpyriment","Interactive Ising","3.0.2","yes","0","z","NA","space","/","space","/","/","/","z","space","965","NA","11327","3046","3539","9133","9036","2899","965","35386","legacy","500","experiment","1","odd","NA","NA","NA","633938","NA","NA","NA","NA","NA","492243","653382","NA","NA","NA","232454","655105","653558","NA","232454","656105","656109","607115","648324","640521","207677","210730","214276","223416","204752","9878","656609","656613","607619","648328","640525","656613","584008","657584","583891","657684","169214","653381","NA","NA","NA","633938","9702","Hommel2002EXP01","3","2777","3","yes","1024"
"n","no","yes","circle","100","100","895","895","black","no","xpyriment","legacy","blue","green","yellow","red","legacy","0","uniform","1","1","z","1","NA","NA","3","NA","NA","NA","NA","3","0","51","0","0","0","0","51","51","0","0","51","51","51","51","51","0","0","0","0","0","0","51","51","51","51","51","51","51","51","51","51","0","51","NA","NA","NA","3","0","01/04/16 20:11:09","Default description","no","chinese-japanese-korean","no","18","white","開始實驗B","768","legacy","C:/Users/Evonne/Desktop/test/Compatibility/3_Data Collection/RAW/A-4.csv","xpyriment","Interactive Ising","3.0.2","yes","0","z","NA","space","/","space","/","/","/","z","space","806","NA","11327","3046","3539","9133","9036","2899","806","35386","legacy","500","experiment","1","odd","NA","NA","NA","633938","NA","NA","NA","NA","NA","492243","661916","NA","NA","NA","232454","663622","662081","NA","232454","664622","656109","664626","648324","640521","207677","210730","214276","223416","204752","9878","665126","656613","665130","648328","640525","665130","584008","665943","583891","666043","169214","661915","NA","NA","NA","633938","9702","Hommel2002EXP01","4","3583","4","yes","1024"
"y","no","yes","circle","100","100","913","913","black","no","xpyriment","legacy","yellow","red","green","blue","legacy","0","uniform","1","1","z","1","NA","NA","3","NA","NA","NA","NA","3","0","52","0","0","0","0","52","52","0","0","52","52","52","52","52","0","0","0","0","0","0","52","52","52","52","52","52","52","52","52","52","0","52","NA","NA","NA","3","0","01/04/16 20:11:09","Default description","no","chinese-japanese-korean","no","18","white","開始實驗B","768","legacy","C:/Users/Evonne/Desktop/test/Compatibility/3_Data Collection/RAW/A-4.csv","xpyriment","Interactive Ising","3.0.2","yes","0","z","NA","space","/","space","/","/","/","z","space","983","NA","11327","3046","3539","9133","9036","2899","983","35386","legacy","500","experiment","1","odd","NA","NA","NA","633938","NA","NA","NA","NA","NA","492243","670073","NA","NA","NA","232454","671810","670273","NA","232454","672811","672815","664626","648324","640521","207677","210730","214276","223416","204752","9878","673315","673319","665130","648328","640525","673320","584008","674309","583891","674409","169214","670073","NA","NA","NA","633938","9702","Hommel2002EXP01","5","4566","5","yes","1024"
"n","no","yes","circle","83.3333333333","83.3333333333","1094","1094","black","no","xpyriment","legacy","yellow","green","blue","red","legacy","0","uniform","0","0","z","1","NA","NA","3","NA","NA","NA","NA","3","0","53","0","0","0","0","53","53","0","0","53","53","53","53","53","0","0","0","0","0","0","53","53","53","53","53","53","53","53","53","53","0","53","NA","NA","NA","3","0","01/04/16 20:11:09","Default description","no","chinese-japanese-korean","no","18","white","開始實驗B","768","legacy","C:/Users/Evonne/Desktop/test/Compatibility/3_Data Collection/RAW/A-4.csv","xpyriment","Interactive Ising","3.0.2","yes","0","None","NA","space","/","space","/","/","/","None","space","2001","NA","11327","3046","3539","9133","9036","2899","2001","35386","legacy","0","experiment","1","odd","NA","NA","NA","633938","NA","NA","NA","NA","NA","492243","678495","NA","NA","NA","232454","680535","679031","NA","232454","681536","672815","681539","648324","640521","207677","210730","214276","223416","204752","9878","681540","673319","681544","648328","640525","681544","683653","674309","683550","683753","169214","678495","NA","NA","NA","633938","9702","Hommel2002EXP01","5","6567","6","yes","1024"
"y","no","yes","rect","85.7142857143","85.7142857143","1024","1024","black","no","xpyriment","legacy","yellow","red","green","blue","legacy","0","uniform","1","1","/","1","NA","NA","3","NA","NA","NA","NA","3","0","54","0","0","0","0","54","54","0","0","54","54","54","54","54","0","0","0","0","0","0","54","54","54","54","54","54","54","54","54","54","0","54","NA","NA","NA","3","0","01/04/16 20:11:09","Default description","no","chinese-japanese-korean","no","18","white","開始實驗B","768","legacy","C:/Users/Evonne/Desktop/test/Compatibility/3_Data Collection/RAW/A-4.csv","xpyriment","Interactive Ising","3.0.2","yes","0","/","NA","space","/","space","/","/","/","/","space","605","NA","11327","3046","3539","9133","9036","2899","605","35386","legacy","500","experiment","1","odd","NA","NA","NA","633938","NA","NA","NA","NA","NA","492243","687326","NA","NA","NA","232454","689017","687470","NA","232454","690017","672815","681539","690021","640521","207677","210730","214276","223416","204752","9878","690521","673319","681544","690525","640525","690525","683653","691136","683550","691236","169214","687325","NA","NA","NA","633938","9702","Hommel2002EXP01","6","7172","7","yes","1024"
"n","no","yes","rect","87.5","87.5","1013","1013","black","no","xpyriment","legacy","green","blue","red","yellow","legacy","0","uniform","1","1","/","1","NA","NA","3","NA","NA","NA","NA","3","0","55","0","0","0","0","55","55","0","0","55","55","55","55","55","0","0","0","0","0","0","55","55","55","55","55","55","55","55","55","55","0","55","NA","NA","NA","3","0","01/04/16 20:11:09","Default description","no","chinese-japanese-korean","no","18","white","開始實驗B","768","legacy","C:/Users/Evonne/Desktop/test/Compatibility/3_Data Collection/RAW/A-4.csv","xpyriment","Interactive Ising","3.0.2","yes","0","/","NA","space","/","space","/","/","/","/","space","935","NA","11327","3046","3539","9133","9036","2899","935","35386","legacy","500","experiment","1","odd","NA","NA","NA","633938","NA","NA","NA","NA","NA","492243","695023","NA","NA","NA","232454","696847","695303","NA","232454","697848","672815","681539","690021","697852","207677","210730","214276","223416","204752","9878","698352","673319","681544","690525","698356","698356","683653","699296","683550","699396","169214","695023","NA","NA","NA","633938","9702","Hommel2002EXP01","7","8107","8","yes","1024"
"y","no","yes","circle","88.8888888889","88.8888888889","1033","1033","black","no","xpyriment","legacy","blue","red","green","yellow","legacy","0","uniform","1","1","z","1","NA","NA","3","NA","NA","NA","NA","3","0","56","0","0","0","0","56","56","0","0","56","56","56","56","56","0","0","0","0","0","0","56","56","56","56","56","56","56","56","56","56","0","56","NA","NA","NA","3","0","01/04/16 20:11:09","Default description","no","chinese-japanese-korean","no","18","white","開始實驗B","768","legacy","C:/Users/Evonne/Desktop/test/Compatibility/3_Data Collection/RAW/A-4.csv","xpyriment","Interactive Ising","3.0.2","yes","0","z","NA","space","/","space","/","/","/","z","space","1198","NA","11327","3046","3539","9133","9036","2899","1198","35386","legacy","0","experiment","1","odd","NA","NA","NA","633938","NA","NA","NA","NA","NA","492243","703407","NA","NA","NA","232454","705230","703684","NA","232454","706230","706234","681539","690021","697852","207677","210730","214276","223416","204752","9878","706235","706239","681544","690525","698356","706239","683653","707443","683550","707543","169214","703407","NA","NA","NA","633938","9702","Hommel2002EXP01","8","9305","9","yes","1024"
"n","no","yes","rect","90","90","1034","1034","black","no","xpyriment","legacy","red","yellow","green","blue","legacy","0","uniform","1","1","/","1","NA","NA","3","NA","NA","NA","NA","3","0","57","0","0","0","0","57","57","0","0","57","57","57","57","57","0","0","0","0","0","0","57","57","57","57","57","57","57","57","57","57","0","57","NA","NA","NA","3","0","01/04/16 20:11:09","Default description","no","chinese-japanese-korean","no","18","white","開始實驗B","768","legacy","C:/Users/Evonne/Desktop/test/Compatibility/3_Data Collection/RAW/A-4.csv","xpyriment","Interactive Ising","3.0.2","yes","0","/","NA","space","/","space","/","/","/","/","space","1036","NA","11327","3046","3539","9133","9036","2899","1036","35386","legacy","0","experiment","1","odd","NA","NA","NA","633938","NA","NA","NA","NA","NA","492243","711704","NA","NA","NA","232454","713520","711972","NA","232454","714520","706234","681539","690021","714524","207677","210730","214276","223416","204752","9878","714524","706239","681544","690525","714528","714528","683653","715569","683550","715670","169214","711703","NA","NA","NA","633938","9702","Hommel2002EXP01","9","10341","10","yes","1024"
"y","no","yes","rect","90.9090909091","90.9090909091","1024","1024","black","no","xpyriment","legacy","green","red","blue","yellow","legacy","0","uniform","1","1","/","1","NA","NA","3","NA","NA","NA","NA","3","0","58","0","0","0","0","58","58","0","0","58","58","58","58","58","0","0","0","0","0","0","58","58","58","58","58","58","58","58","58","58","0","58","NA","NA","NA","3","0","01/04/16 20:11:09","Default description","no","chinese-japanese-korean","no","18","white","開始實驗B","768","legacy","C:/Users/Evonne/Desktop/test/Compatibility/3_Data Collection/RAW/A-4.csv","xpyriment","Interactive Ising","3.0.2","yes","0","/","NA","space","/","space","/","/","/","/","space","927","NA","11327","3046","3539","9133","9036","2899","927","35386","legacy","500","experiment","1","odd","NA","NA","NA","633938","NA","NA","NA","NA","NA","492243","719681","NA","NA","NA","232454","721489","719985","NA","232454","722489","706234","681539","722493","714524","207677","210730","214276","223416","204752","9878","722993","706239","681544","722997","714528","722997","683653","723930","683550","724030","169214","719681","NA","NA","NA","633938","9702","Hommel2002EXP01","10","11268","11","yes","1024"
"n","no","yes","rect","91.6666666667","91.6666666667","993","993","black","no","xpyriment","legacy","green","red","blue","yellow","legacy","0","uniform","1","1","/","1","NA","NA","3","NA","NA","NA","NA","3","0","59","0","0","0","0","59","59","0","0","59","59","59","59","59","0","0","0","0","0","0","59","59","59","59","59","59","59","59","59","59","0","59","NA","NA","NA","3","0","01/04/16 20:11:09","Default description","no","chinese-japanese-korean","no","18","white","開始實驗B","768","legacy","C:/Users/Evonne/Desktop/test/Compatibility/3_Data Collection/RAW/A-4.csv","xpyriment","Interactive Ising","3.0.2","yes","0","/","NA","space","/","space","/","/","/","/","space","658","NA","11327","3046","3539","9133","9036","2899","658","35386","legacy","500","experiment","1","odd","NA","NA","NA","633938","NA","NA","NA","NA","NA","492243","727933","NA","NA","NA","232454","729624","728082","NA","232454","730624","706234","681539","722493","730628","207677","210730","214276","223416","204752","9878","731128","706239","681544","722997","731132","731132","683653","731796","683550","731896","169214","727933","NA","NA","NA","633938","9702","Hommel2002EXP01","11","11926","12","yes","1024"
"n","no","yes","circle","92.3076923077","92.3076923077","985","985","black","no","xpyriment","legacy","yellow","green","red","blue","legacy","0","uniform","1","1","z","1","NA","NA","3","NA","NA","NA","NA","3","0","60","0","0","0","0","60","60","0","0","60","60","60","60","60","0","0","0","0","0","0","60","60","60","60","60","60","60","60","60","60","0","60","NA","NA","NA","3","0","01/04/16 20:11:09","Default description","no","chinese-japanese-korean","no","18","white","開始實驗B","768","legacy","C:/Users/Evonne/Desktop/test/Compatibility/3_Data Collection/RAW/A-4.csv","xpyriment","Interactive Ising","3.0.2","yes","0","z","NA","space","/","space","/","/","/","z","space","882","NA","11327","3046","3539","9133","9036","2899","882","35386","legacy","500","experiment","1","odd","NA","NA","NA","633938","NA","NA","NA","NA","NA","492243","735753","NA","NA","NA","232454","737578","736034","NA","232454","738579","706234","738583","722493","730628","207677","210730","214276","223416","204752","9878","739083","706239","739087","722997","731132","739087","683653","739975","683550","740076","169214","735753","NA","NA","NA","633938","9702","Hommel2002EXP01","12","12808","13","yes","1024"
"y","no","yes","circle","92.8571428571","92.8571428571","963","963","black","no","xpyriment","legacy","blue","red","green","yellow","legacy","0","uniform","1","1","z","1","NA","NA","3","NA","NA","NA","NA","3","0","61","0","0","0","0","61","61","0","0","61","61","61","61","61","0","0","0","0","0","0","61","61","61","61","61","61","61","61","61","61","0","61","NA","NA","NA","3","0","01/04/16 20:11:09","Default description","no","chinese-japanese-korean","no","18","white","開始實驗B","768","legacy","C:/Users/Evonne/Desktop/test/Compatibility/3_Data Collection/RAW/A-4.csv","xpyriment","Interactive Ising","3.0.2","yes","0","z","NA","space","/","space","/","/","/","z","space","686","NA","11327","3046","3539","9133","9036","2899","686","35386","legacy","0","experiment","1","odd","NA","NA","NA","633938","NA","NA","NA","NA","NA","492243","743893","NA","NA","NA","232454","745656","744114","NA","232454","746656","746661","738583","722493","730628","207677","210730","214276","223416","204752","9878","746661","746666","739087","722997","731132","746666","683653","747359","683550","747459","169214","743893","NA","NA","NA","633938","9702","Hommel2002EXP01","13","13494","14","yes","1024"
"y","no","yes","rect","93.3333333333","93.3333333333","960","960","black","no","xpyriment","legacy","green","blue","red","yellow","legacy","0","uniform","1","1","/","1","NA","NA","3","NA","NA","NA","NA","3","0","62","0","0","0","0","62","62","0","0","62","62","62","62","62","0","0","0","0","0","0","62","62","62","62","62","62","62","62","62","62","0","62","NA","NA","NA","3","0","01/04/16 20:11:09","Default description","no","chinese-japanese-korean","no","18","white","開始實驗B","768","legacy","C:/Users/Evonne/Desktop/test/Compatibility/3_Data Collection/RAW/A-4.csv","xpyriment","Interactive Ising","3.0.2","yes","0","/","NA","space","/","space","/","/","/","/","space","907","NA","11327","3046","3539","9133","9036","2899","907","35386","legacy","0","experiment","1","odd","NA","NA","NA","633938","NA","NA","NA","NA","NA","492243","751576","NA","NA","NA","232454","753281","751736","NA","232454","754282","746661","738583","754286","730628","207677","210730","214276","223416","204752","9878","754286","746666","739087","754291","731132","754291","683653","755203","683550","755303","169214","751576","NA","NA","NA","633938","9702","Hommel2002EXP01","14","14401","15","yes","1024"
"n","no","yes","circle","93.75","93.75","965","965","black","no","xpyriment","legacy","blue","green","yellow","red","legacy","0","uniform","1","1","z","1","NA","NA","3","NA","NA","NA","NA","3","0","63","0","0","0","0","63","63","0","0","63","63","63","63","63","0","0","0","0","0","0","63","63","63","63","63","63","63","63","63","63","0","63","NA","NA","NA","3","0","01/04/16 20:11:09","Default description","no","chinese-japanese-korean","no","18","white","開始實驗B","768","legacy","C:/Users/Evonne/Desktop/test/Compatibility/3_Data Collection/RAW/A-4.csv","xpyriment","Interactive Ising","3.0.2","yes","0","z","NA","space","/","space","/","/","/","z","space","1040","NA","11327","3046","3539","9133","9036","2899","1040","35386","legacy","0","experiment","1","odd","NA","NA","NA","633938","NA","NA","NA","NA","NA","492243","759433","NA","NA","NA","232454","761143","759591","NA","232454","762144","746661","762147","754286","730628","207677","210730","214276","223416","204752","9878","762148","746666","762152","754291","731132","762152","683653","763197","683550","763298","169214","759432","NA","NA","NA","633938","9702","Hommel2002EXP01","15","15441","16","yes","1024"
"n","no","yes","circle","100","100","1862","1862","black","no","xpyriment","legacy","yellow","green","blue","red","legacy","0","uniform","1","1","z","1","NA","0","3","NA","NA","0","NA","3","1","64","0","0","0","0","64","64","0","0","64","64","64","64","64","0","0","0","0","0","0","64","64","64","64","64","64","64","64","64","64","0","64","NA","0","NA","3","0","01/04/16 20:11:09","Default description","no","chinese-japanese-korean","no","18","white","開始實驗B","768","legacy","C:/Users/Evonne/Desktop/test/Compatibility/3_Data Collection/RAW/A-4.csv","xpyriment","Interactive Ising","3.0.2","no","0","z","space","space","/","space","/","/","/","z","space","1862","3873","22104","3046","3539","9133","9036","2899","1862","35386","legacy","250","experiment","1","odd","786135","NA","790020","633938","NA","NA","NA","NA","NA","764005","794235","NA","790010","NA","232454","796135","794632","NA","232454","797135","746661","797138","754286","730628","207677","210730","214276","223416","204752","9878","797389","746666","797393","754291","731132","797394","683653","799262","683550","799363","169214","794234","NA","790020","NA","633938","9702","Hommel2002EXP01","1","1862","1","yes","1024"
"n","no","yes","circle","100","100","1839","1839","black","no","xpyriment","legacy","red","blue","green","yellow","legacy","0","uniform","1","1","z","1","NA","0","3","NA","NA","0","NA","3","1","65","0","0","0","0","65","65","0","0","65","65","65","65","65","0","0","0","0","0","0","65","65","65","65","65","65","65","65","65","65","0","65","NA","0","NA","3","0","01/04/16 20:11:09","Default description","no","chinese-japanese-korean","no","18","white","開始實驗B","768","legacy","C:/Users/Evonne/Desktop/test/Compatibility/3_Data Collection/RAW/A-4.csv","xpyriment","Interactive Ising","3.0.2","no","0","z","space","space","/","space","/","/","/","z","space","1817","3873","22104","3046","3539","9133","9036","2899","1817","35386","legacy","0","experiment","1","odd","786135","NA","790020","633938","NA","NA","NA","NA","NA","764005","803636","NA","790010","NA","232454","805332","803783","NA","232454","806332","746661","806336","754286","730628","207677","210730","214276","223416","204752","9878","806336","746666","806340","754291","731132","806341","683653","808164","683550","808264","169214","803635","NA","790020","NA","633938","9702","Hommel2002EXP01","2","3679","2","yes","1024"
"y","no","yes","circle","100","100","1646","1646","black","no","xpyriment","legacy","green","red","yellow","blue","legacy","0","uniform","1","1","z","1","NA","0","3","NA","NA","0","NA","3","1","66","0","0","0","0","66","66","0","0","66","66","66","66","66","0","0","0","0","0","0","66","66","66","66","66","66","66","66","66","66","0","66","NA","0","NA","3","0","01/04/16 20:11:09","Default description","no","chinese-japanese-korean","no","18","white","開始實驗B","768","legacy","C:/Users/Evonne/Desktop/test/Compatibility/3_Data Collection/RAW/A-4.csv","xpyriment","Interactive Ising","3.0.2","no","0","z","space","space","/","space","/","/","/","z","space","1260","3873","22104","3046","3539","9133","9036","2899","1260","35386","legacy","0","experiment","1","odd","786135","NA","790020","633938","NA","NA","NA","NA","NA","764005","812314","NA","790010","NA","232454","814133","812585","NA","232454","815134","815138","806336","754286","730628","207677","210730","214276","223416","204752","9878","815139","815143","806340","754291","731132","815143","683653","816409","683550","816509","169214","812313","NA","790020","NA","633938","9702","Hommel2002EXP01","3","4939","3","yes","1024"
"y","no","yes","rect","100","100","1433","1433","black","no","xpyriment","legacy","green","yellow","red","blue","legacy","0","uniform","1","1","/","1","NA","0","3","NA","NA","0","NA","3","1","67","0","0","0","0","67","67","0","0","67","67","67","67","67","0","0","0","0","0","0","67","67","67","67","67","67","67","67","67","67","0","67","NA","0","NA","3","0","01/04/16 20:11:09","Default description","no","chinese-japanese-korean","no","18","white","開始實驗B","768","legacy","C:/Users/Evonne/Desktop/test/Compatibility/3_Data Collection/RAW/A-4.csv","xpyriment","Interactive Ising","3.0.2","no","0","/","space","space","/","space","/","/","/","/","space","794","3873","22104","3046","3539","9133","9036","2899","794","35386","legacy","500","experiment","1","odd","786135","NA","790020","633938","NA","NA","NA","NA","NA","764005","820403","NA","790010","NA","232454","822154","820608","NA","232454","823155","815138","806336","823159","730628","207677","210730","214276","223416","204752","9878","823659","815143","806340","823663","731132","823663","683653","824463","683550","824564","169214","820402","NA","790020","NA","633938","9702","Hommel2002EXP01","4","5733","4","yes","1024"
"n","no","yes","circle","100","100","1300","1300","black","no","xpyriment","legacy","green","blue","red","yellow","legacy","0","uniform","1","1","z","1","NA","0","3","NA","NA","0","NA","3","1","68","0","0","0","0","68","68","0","0","68","68","68","68","68","0","0","0","0","0","0","68","68","68","68","68","68","68","68","68","68","0","68","NA","0","NA","3","0","01/04/16 20:11:09","Default description","no","chinese-japanese-korean","no","18","white","開始實驗B","768","legacy","C:/Users/Evonne/Desktop/test/Compatibility/3_Data Collection/RAW/A-4.csv","xpyriment","Interactive Ising","3.0.2","no","0","z","space","space","/","space","/","/","/","z","space","770","3873","22104","3046","3539","9133","9036","2899","770","35386","legacy","250","experiment","1","odd","786135","NA","790020","633938","NA","NA","NA","NA","NA","764005","828615","NA","790010","NA","232454","830324","828782","NA","232454","831325","815138","831329","823159","730628","207677","210730","214276","223416","204752","9878","831579","815143","831583","823663","731132","831583","683653","832359","683550","832459","169214","828614","NA","790020","NA","633938","9702","Hommel2002EXP01","5","6503","5","yes","1024"
"n","no","yes","circle","100","100","1291","1291","black","no","xpyriment","legacy","yellow","red","green","blue","legacy","0","uniform","1","1","z","1","NA","0","3","NA","NA","0","NA","3","1","69","0","0","0","0","69","69","0","0","69","69","69","69","69","0","0","0","0","0","0","69","69","69","69","69","69","69","69","69","69","0","69","NA","0","NA","3","0","01/04/16 20:11:09","Default description","no","chinese-japanese-korean","no","18","white","開始實驗B","768","legacy","C:/Users/Evonne/Desktop/test/Compatibility/3_Data Collection/RAW/A-4.csv","xpyriment","Interactive Ising","3.0.2","no","0","z","space","space","/","space","/","/","/","z","space","1243","3873","22104","3046","3539","9133","9036","2899","1243","35386","legacy","0","experiment","1","odd","786135","NA","790020","633938","NA","NA","NA","NA","NA","764005","836817","NA","790010","NA","232454","838517","836973","NA","232454","839517","815138","839520","823159","730628","207677","210730","214276","223416","204752","9878","839521","815143","839525","823663","731132","839526","683653","840775","683550","840875","169214","836816","NA","790020","NA","633938","9702","Hommel2002EXP01","6","7746","6","yes","1024"
"y","no","yes","rect","100","100","1237","1237","black","no","xpyriment","legacy","yellow","red","green","blue","legacy","0","uniform","1","1","/","1","NA","0","3","NA","NA","0","NA","3","1","70","0","0","0","0","70","70","0","0","70","70","70","70","70","0","0","0","0","0","0","70","70","70","70","70","70","70","70","70","70","0","70","NA","0","NA","3","0","01/04/16 20:11:09","Default description","no","chinese-japanese-korean","no","18","white","開始實驗B","768","legacy","C:/Users/Evonne/Desktop/test/Compatibility/3_Data Collection/RAW/A-4.csv","xpyriment","Interactive Ising","3.0.2","no","0","/","space","space","/","space","/","/","/","/","space","914","3873","22104","3046","3539","9133","9036","2899","914","35386","legacy","0","experiment","1","odd","786135","NA","790020","633938","NA","NA","NA","NA","NA","764005","845028","NA","790010","NA","232454","846935","845431","NA","232454","847935","815138","839520","847939","730628","207677","210730","214276","223416","204752","9878","847939","815143","839525","847943","731132","847943","683653","848863","683550","848963","169214","845027","NA","790020","NA","633938","9702","Hommel2002EXP01","7","8660","7","yes","1024"
"n","no","yes","rect","100","100","1184","1184","black","no","xpyriment","legacy","green","blue","yellow","red","legacy","0","uniform","1","1","/","1","NA","0","3","NA","NA","0","NA","3","1","71","0","0","0","0","71","71","0","0","71","71","71","71","71","0","0","0","0","0","0","71","71","71","71","71","71","71","71","71","71","0","71","NA","0","NA","3","0","01/04/16 20:11:09","Default description","no","chinese-japanese-korean","no","18","white","開始實驗B","768","legacy","C:/Users/Evonne/Desktop/test/Compatibility/3_Data Collection/RAW/A-4.csv","xpyriment","Interactive Ising","3.0.2","no","0","/","space","space","/","space","/","/","/","/","space","816","3873","22104","3046","3539","9133","9036","2899","816","35386","legacy","250","experiment","1","odd","786135","NA","790020","633938","NA","NA","NA","NA","NA","764005","852916","NA","790010","NA","232454","854620","853076","NA","232454","855621","815138","839520","847939","855625","207677","210730","214276","223416","204752","9878","855875","815143","839525","847943","855879","855879","683653","856701","683550","856801","169214","852915","NA","790020","NA","633938","9702","Hommel2002EXP01","8","9476","8","yes","1024"
"y","no","yes","circle","100","100","1177","1177","black","no","xpyriment","legacy","red","yellow","blue","green","legacy","0","uniform","1","1","z","1","NA","0","3","NA","NA","0","NA","3","1","72","0","0","0","0","72","72","0","0","72","72","72","72","72","0","0","0","0","0","0","72","72","72","72","72","72","72","72","72","72","0","72","NA","0","NA","3","0","01/04/16 20:11:09","Default description","no","chinese-japanese-korean","no","18","white","開始實驗B","768","legacy","C:/Users/Evonne/Desktop/test/Compatibility/3_Data Collection/RAW/A-4.csv","xpyriment","Interactive Ising","3.0.2","no","0","z","space","space","/","space","/","/","/","z","space","1122","3873","22104","3046","3539","9133","9036","2899","1122","35386","legacy","500","experiment","1","odd","786135","NA","790020","633938","NA","NA","NA","NA","NA","764005","860940","NA","790010","NA","232454","862757","861210","NA","232454","863758","863762","839520","847939","855625","207677","210730","214276","223416","204752","9878","864262","864266","839525","847943","855879","864266","683653","865393","683550","865494","169214","860939","NA","790020","NA","633938","9702","Hommel2002EXP01","9","10598","9","yes","1024"
"y","no","yes","circle","100","100","1140","1140","black","no","xpyriment","legacy","green","red","yellow","blue","legacy","0","uniform","1","1","z","1","NA","0","3","NA","NA","0","NA","3","1","73","0","0","0","0","73","73","0","0","73","73","73","73","73","0","0","0","0","0","0","73","73","73","73","73","73","73","73","73","73","0","73","NA","0","NA","3","0","01/04/16 20:11:09","Default description","no","chinese-japanese-korean","no","18","white","開始實驗B","768","legacy","C:/Users/Evonne/Desktop/test/Compatibility/3_Data Collection/RAW/A-4.csv","xpyriment","Interactive Ising","3.0.2","no","0","z","space","space","/","space","/","/","/","z","space","803","3873","22104","3046","3539","9133","9036","2899","803","35386","legacy","250","experiment","1","odd","786135","NA","790020","633938","NA","NA","NA","NA","NA","764005","869561","NA","790010","NA","232454","871302","869756","NA","232454","872303","872307","839520","847939","855625","207677","210730","214276","223416","204752","9878","872557","872561","839525","847943","855879","872561","683653","873370","683550","873470","169214","869561","NA","790020","NA","633938","9702","Hommel2002EXP01","10","11401","10","yes","1024"
"y","no","yes","circle","100","100","1104","1104","black","no","xpyriment","legacy","blue","green","red","yellow","legacy","0","uniform","1","1","z","1","NA","0","3","NA","NA","0","NA","3","1","74","0","0","0","0","74","74","0","0","74","74","74","74","74","0","0","0","0","0","0","74","74","74","74","74","74","74","74","74","74","0","74","NA","0","NA","3","0","01/04/16 20:11:09","Default description","no","chinese-japanese-korean","no","18","white","開始實驗B","768","legacy","C:/Users/Evonne/Desktop/test/Compatibility/3_Data Collection/RAW/A-4.csv","xpyriment","Interactive Ising","3.0.2","no","0","z","space","space","/","space","/","/","/","z","space","751","3873","22104","3046","3539","9133","9036","2899","751","35386","legacy","250","experiment","1","odd","786135","NA","790020","633938","NA","NA","NA","NA","NA","764005","877752","NA","790010","NA","232454","879444","877896","NA","232454","880445","880450","839520","847939","855625","207677","210730","214276","223416","204752","9878","880700","880705","839525","847943","855879","880705","683653","881463","683550","881564","169214","877751","NA","790020","NA","633938","9702","Hommel2002EXP01","11","12152","11","yes","1024"
"n","no","yes","rect","100","100","1079","1079","black","no","xpyriment","legacy","red","green","blue","yellow","legacy","0","uniform","1","1","/","1","NA","0","3","NA","NA","0","NA","3","1","75","0","0","0","0","75","75","0","0","75","75","75","75","75","0","0","0","0","0","0","75","75","75","75","75","75","75","75","75","75","0","75","NA","0","NA","3","0","01/04/16 20:11:09","Default description","no","chinese-japanese-korean","no","18","white","開始實驗B","768","legacy","C:/Users/Evonne/Desktop/test/Compatibility/3_Data Collection/RAW/A-4.csv","xpyriment","Interactive Ising","3.0.2","no","0","/","space","space","/","space","/","/","/","/","space","806","3873","22104","3046","3539","9133","9036","2899","806","35386","legacy","0","experiment","1","odd","786135","NA","790020","633938","NA","NA","NA","NA","NA","764005","885818","NA","790010","NA","232454","887516","885972","NA","232454","888517","880450","839520","847939","888521","207677","210730","214276","223416","204752","9878","888521","880705","839525","847943","888525","888525","683653","889338","683550","889438","169214","885817","NA","790020","NA","633938","9702","Hommel2002EXP01","12","12958","12","yes","1024"
"n","no","yes","rect","100","100","1038","1038","black","no","xpyriment","legacy","red","blue","green","yellow","legacy","0","uniform","1","1","/","1","NA","0","3","NA","NA","0","NA","3","1","76","0","0","0","0","76","76","0","0","76","76","76","76","76","0","0","0","0","0","0","76","76","76","76","76","76","76","76","76","76","0","76","NA","0","NA","3","0","01/04/16 20:11:09","Default description","no","chinese-japanese-korean","no","18","white","開始實驗B","768","legacy","C:/Users/Evonne/Desktop/test/Compatibility/3_Data Collection/RAW/A-4.csv","xpyriment","Interactive Ising","3.0.2","no","0","/","space","space","/","space","/","/","/","/","space","537","3873","22104","3046","3539","9133","9036","2899","537","35386","legacy","500","experiment","1","odd","786135","NA","790020","633938","NA","NA","NA","NA","NA","764005","893687","NA","790010","NA","232454","895436","893890","NA","232454","896436","880450","839520","847939","896440","207677","210730","214276","223416","204752","9878","896940","880705","839525","847943","896944","896944","683653","897487","683550","897587","169214","893686","NA","790020","NA","633938","9702","Hommel2002EXP01","13","13495","13","yes","1024"
"y","no","yes","circle","100","100","1009","1009","black","no","xpyriment","legacy","green","red","yellow","blue","legacy","0","uniform","1","1","z","1","NA","0","3","NA","NA","0","NA","3","1","77","0","0","0","0","77","77","0","0","77","77","77","77","77","0","0","0","0","0","0","77","77","77","77","77","77","77","77","77","77","0","77","NA","0","NA","3","0","01/04/16 20:11:09","Default description","no","chinese-japanese-korean","no","18","white","開始實驗B","768","legacy","C:/Users/Evonne/Desktop/test/Compatibility/3_Data Collection/RAW/A-4.csv","xpyriment","Interactive Ising","3.0.2","no","0","z","space","space","/","space","/","/","/","z","space","635","3873","22104","3046","3539","9133","9036","2899","635","35386","legacy","500","experiment","1","odd","786135","NA","790020","633938","NA","NA","NA","NA","NA","764005","901742","NA","790010","NA","232454","903639","902135","NA","232454","904639","904643","839520","847939","896440","207677","210730","214276","223416","204752","9878","905143","905147","839525","847943","896944","905147","683653","905788","683550","905888","169214","901741","NA","790020","NA","633938","9702","Hommel2002EXP01","14","14130","14","yes","1024"
"n","no","yes","circle","100","100","1012","1012","black","no","xpyriment","legacy","red","green","yellow","blue","legacy","0","uniform","1","1","z","1","NA","0","3","NA","NA","0","NA","3","1","78","0","0","0","0","78","78","0","0","78","78","78","78","78","0","0","0","0","0","0","78","78","78","78","78","78","78","78","78","78","0","78","NA","0","NA","3","0","01/04/16 20:11:09","Default description","no","chinese-japanese-korean","no","18","white","開始實驗B","768","legacy","C:/Users/Evonne/Desktop/test/Compatibility/3_Data Collection/RAW/A-4.csv","xpyriment","Interactive Ising","3.0.2","no","0","z","space","space","/","space","/","/","/","z","space","1055","3873","22104","3046","3539","9133","9036","2899","1055","35386","legacy","500","experiment","1","odd","786135","NA","790020","633938","NA","NA","NA","NA","NA","764005","909888","NA","790010","NA","232454","911590","910043","NA","232454","912590","904643","912594","847939","896440","207677","210730","214276","223416","204752","9878","913094","905147","913098","847943","896944","913099","683653","914160","683550","914260","169214","909888","NA","790020","NA","633938","9702","Hommel2002EXP01","15","15185","15","yes","1024"
"n","no","yes","rect","100","100","1003","1003","black","no","xpyriment","legacy","yellow","red","blue","green","legacy","0","uniform","1","1","/","1","NA","0","3","NA","NA","0","NA","3","1","79","0","0","0","0","79","79","0","0","79","79","79","79","79","0","0","0","0","0","0","79","79","79","79","79","79","79","79","79","79","0","79","NA","0","NA","3","0","01/04/16 20:11:09","Default description","no","chinese-japanese-korean","no","18","white","開始實驗B","768","legacy","C:/Users/Evonne/Desktop/test/Compatibility/3_Data Collection/RAW/A-4.csv","xpyriment","Interactive Ising","3.0.2","no","0","/","space","space","/","space","/","/","/","/","space","872","3873","22104","3046","3539","9133","9036","2899","872","35386","legacy","0","experiment","1","odd","786135","NA","790020","633938","NA","NA","NA","NA","NA","764005","918120","NA","790010","NA","232454","919960","918411","NA","232454","920960","904643","912594","847939","920964","207677","210730","214276","223416","204752","9878","920964","905147","913098","847943","920968","920968","683653","921846","683550","921946","169214","918119","NA","790020","NA","633938","9702","Hommel2002EXP01","16","16057","16","yes","1024"
"y","no","yes","rect","100","100","986","986","black","no","xpyriment","legacy","blue","red","yellow","green","legacy","0","uniform","1","1","/","1","NA","0","3","NA","NA","0","NA","3","1","80","0","0","0","0","80","80","0","0","80","80","80","80","80","0","0","0","0","0","0","80","80","80","80","80","80","80","80","80","80","0","80","NA","0","NA","3","0","01/04/16 20:11:09","Default description","no","chinese-japanese-korean","no","18","white","開始實驗B","768","legacy","C:/Users/Evonne/Desktop/test/Compatibility/3_Data Collection/RAW/A-4.csv","xpyriment","Interactive Ising","3.0.2","no","0","/","space","space","/","space","/","/","/","/","space","707","3873","22104","3046","3539","9133","9036","2899","707","35386","legacy","250","experiment","1","odd","786135","NA","790020","633938","NA","NA","NA","NA","NA","764005","926050","NA","790010","NA","232454","927794","926248","NA","232454","928794","904643","912594","928798","920964","207677","210730","214276","223416","204752","9878","929048","905147","913098","929052","920968","929052","683653","929765","683550","929865","169214","926049","NA","790020","NA","633938","9702","Hommel2002EXP01","17","16764","17","yes","1024"
"y","no","yes","rect","100","100","971","971","black","no","xpyriment","legacy","yellow","blue","green","red","legacy","0","uniform","1","1","/","1","NA","0","3","NA","NA","0","NA","3","1","81","0","0","0","0","81","81","0","0","81","81","81","81","81","0","0","0","0","0","0","81","81","81","81","81","81","81","81","81","81","0","81","NA","0","NA","3","0","01/04/16 20:11:09","Default description","no","chinese-japanese-korean","no","18","white","開始實驗B","768","legacy","C:/Users/Evonne/Desktop/test/Compatibility/3_Data Collection/RAW/A-4.csv","xpyriment","Interactive Ising","3.0.2","no","0","/","space","space","/","space","/","/","/","/","space","723","3873","22104","3046","3539","9133","9036","2899","723","35386","legacy","500","experiment","1","odd","786135","NA","790020","633938","NA","NA","NA","NA","NA","764005","934084","NA","790010","NA","232454","935758","934207","NA","232454","936758","904643","912594","936762","920964","207677","210730","214276","223416","204752","9878","937262","905147","913098","937266","920968","937266","683653","937995","683550","938095","169214","934084","NA","790020","NA","633938","9702","Hommel2002EXP01","18","17487","18","yes","1024"
