"Compatibility","EXPA","EXPB","Shape","acc","accuracy","average_response_time","avg_rt","background","bidi","canvas_backend","clock_backend","color1","color2","color3","color4","color_backend","compensation","coordinates","correct","correct_Target_response","correct_response","count_Block_Break","count_Block_EXPERIMENT_A","count_Block_EXPERIMENT_B","count_Block_Parctice_B","count_Block_Practice_A","count_Block_reset_EXPERIMENT_A","count_Block_reset_EXPERIMENT_B","count_Block_reset_Practice_A","count_Block_reset_Practice_B","count_Break","count_Decide_Color","count_EXPERIMENT_A","count_EXPERIMENT_B","count_EXP_A","count_EXP_B","count_Initial","count_Intertrial","count_Practice_A","count_Practice_B","count_Prepare","count_Prepare_circle_compatible","count_Prepare_circle_incompatible","count_Prepare_rect_compatible","count_Prepare_rect_incompatible","count_Procedure_Ins01","count_Procedure_Ins02","count_Procedure_Ins03","count_Ready","count_Response_Ins","count_Select_Experiment","count_Target","count_Target_circle_compatible","count_Target_circle_incompatible","count_Target_rect_compatible","count_Target_rect_incompatible","count_Target_response","count_Target_response_BadResponse","count_Target_response_Correct","count_Target_response_Wrong","count_Target_response_logger","count_Title","count_Trial","count_Trial_EXPERIMENT_A","count_Trial_EXPERIMENT_B","count_Trial_Practice_A","count_Trial_Practice_B","count_experiment","datetime","description","font_bold","font_family","font_italic","font_size","foreground","form_response","height","keyboard_backend","logfile","mouse_backend","opensesame_codename","opensesame_version","practice","repeat_cycle","response","response_Block_Break","response_Break","response_Procedure_Ins01","response_Procedure_Ins02","response_Procedure_Ins03","response_Ready","response_Response_Ins","response_Target_response","response_Title","response_time","response_time_Block_Break","response_time_Break","response_time_Procedure_Ins01","response_time_Procedure_Ins02","response_time_Procedure_Ins03","response_time_Ready","response_time_Response_Ins","response_time_Target_response","response_time_Title","sampler_backend","soa","start","subject_nr","subject_parity","time_Block_Break","time_Block_EXPERIMENT_A","time_Block_EXPERIMENT_B","time_Block_Parctice_B","time_Block_Practice_A","time_Block_reset_EXPERIMENT_A","time_Block_reset_EXPERIMENT_B","time_Block_reset_Practice_A","time_Block_reset_Practice_B","time_Break","time_Decide_Color","time_EXPERIMENT_A","time_EXPERIMENT_B","time_EXP_A","time_EXP_B","time_Initial","time_Intertrial","time_Practice_A","time_Practice_B","time_Prepare","time_Prepare_circle_compatible","time_Prepare_circle_incompatible","time_Prepare_rect_compatible","time_Prepare_rect_incompatible","time_Procedure_Ins01","time_Procedure_Ins02","time_Procedure_Ins03","time_Ready","time_Response_Ins","time_Select_Experiment","time_Target","time_Target_circle_compatible","time_Target_circle_incompatible","time_Target_rect_compatible","time_Target_rect_incompatible","time_Target_response","time_Target_response_BadResponse","time_Target_response_Correct","time_Target_response_Wrong","time_Target_response_logger","time_Title","time_Trial","time_Trial_EXPERIMENT_A","time_Trial_EXPERIMENT_B","time_Trial_Practice_A","time_Trial_Practice_B","time_experiment","title","total_correct","total_response_time","total_responses","uniform_coordinates","width"
"n","no","yes","rect","0","0","2000","2000","black","no","xpyriment","legacy","blue","yellow","green","red","legacy","0","uniform","0","0","/","1","NA","NA","0","NA","NA","NA","NA","0","NA","0","0","0","0","0","0","0","0","0","0","0","0","0","0","0","0","0","0","0","0","0","0","0","0","0","0","0","0","0","0","0","0","NA","NA","NA","0","0","01/01/16 11:20:48","Default description","no","chinese-japanese-korean","no","18","white","開始實驗B","768","legacy","C:/Users/Evonne/Desktop/test/Compatibility/3_Data Collection/RAW/B-1.csv","xpyriment","Interactive Ising","3.0.2","yes","0","None","NA","NA","space","space","/","space","space","None","space","2000","NA","NA","2858","3422","9968","12324","9205","2000","3676","legacy","500","experiment","1","odd","NA","NA","NA","100268","NA","NA","NA","NA","NA","NA","104404","NA","NA","NA","100257","106181","104631","NA","100258","107181","NA","NA","NA","107184","71672","74534","77960","87932","62462","8869","107684","NA","NA","NA","107687","107688","109807","NA","109692","109907","58718","104403","NA","NA","NA","100268","8742","Hommel2002EXP01","0","2000","1","yes","1024"
"n","no","yes","rect","50","50","1556","1556","black","no","xpyriment","legacy","blue","red","yellow","green","legacy","0","uniform","1","1","/","1","NA","NA","0","NA","NA","NA","NA","0","NA","1","0","0","0","0","1","1","0","0","1","1","1","1","1","0","0","0","0","0","0","1","1","1","1","1","1","1","1","1","1","0","1","NA","NA","NA","0","0","01/01/16 11:20:48","Default description","no","chinese-japanese-korean","no","18","white","開始實驗B","768","legacy","C:/Users/Evonne/Desktop/test/Compatibility/3_Data Collection/RAW/B-1.csv","xpyriment","Interactive Ising","3.0.2","yes","0","/","NA","NA","space","space","/","space","space","/","space","1113","NA","NA","2858","3422","9968","12324","9205","1113","3676","legacy","0","experiment","1","odd","NA","NA","NA","100268","NA","NA","NA","NA","NA","NA","114041","NA","NA","NA","100257","115824","114281","NA","100258","116825","NA","NA","NA","116828","71672","74534","77960","87932","62462","8869","116829","NA","NA","NA","116831","116832","109807","117950","109692","118051","58718","114041","NA","NA","NA","100268","8742","Hommel2002EXP01","1","3113","2","yes","1024"
"n","no","yes","rect","33.3333333333","33.3333333333","1559","1559","black","no","xpyriment","legacy","blue","yellow","green","red","legacy","0","uniform","0","0","/","1","NA","NA","0","NA","NA","NA","NA","0","NA","2","0","0","0","0","2","2","0","0","2","2","2","2","2","0","0","0","0","0","0","2","2","2","2","2","2","2","2","2","2","0","2","NA","NA","NA","0","0","01/01/16 11:20:48","Default description","no","chinese-japanese-korean","no","18","white","開始實驗B","768","legacy","C:/Users/Evonne/Desktop/test/Compatibility/3_Data Collection/RAW/B-1.csv","xpyriment","Interactive Ising","3.0.2","yes","0","z","NA","NA","space","space","/","space","space","z","space","1566","NA","NA","2858","3422","9968","12324","9205","1566","3676","legacy","0","experiment","1","odd","NA","NA","NA","100268","NA","NA","NA","NA","NA","NA","121927","NA","NA","NA","100257","123633","122084","NA","100258","124633","NA","NA","NA","124636","71672","74534","77960","87932","62462","8869","124637","NA","NA","NA","124640","124640","109807","117950","126212","126312","58718","121927","NA","NA","NA","100268","8742","Hommel2002EXP01","1","4679","3","yes","1024"
"y","no","yes","rect","50","50","1635","1635","black","no","xpyriment","legacy","green","red","yellow","blue","legacy","0","uniform","1","1","/","1","NA","NA","0","NA","NA","NA","NA","0","NA","3","0","0","0","0","3","3","0","0","3","3","3","3","3","0","0","0","0","0","0","3","3","3","3","3","3","3","3","3","3","0","3","NA","NA","NA","0","0","01/01/16 11:20:48","Default description","no","chinese-japanese-korean","no","18","white","開始實驗B","768","legacy","C:/Users/Evonne/Desktop/test/Compatibility/3_Data Collection/RAW/B-1.csv","xpyriment","Interactive Ising","3.0.2","yes","0","/","NA","NA","space","space","/","space","space","/","space","1863","NA","NA","2858","3422","9968","12324","9205","1863","3676","legacy","500","experiment","1","odd","NA","NA","NA","100268","NA","NA","NA","NA","NA","NA","130446","NA","NA","NA","100257","132218","130715","NA","100258","133219","NA","NA","133222","124636","71672","74534","77960","87932","62462","8869","133722","NA","NA","133725","124640","133725","109807","135593","126212","135693","58718","130446","NA","NA","NA","100268","8742","Hommel2002EXP01","2","6542","4","yes","1024"
"n","no","yes","rect","60","60","1483","1483","black","no","xpyriment","legacy","blue","yellow","red","green","legacy","0","uniform","1","1","/","1","NA","NA","0","NA","NA","NA","NA","0","NA","4","0","0","0","0","4","4","0","0","4","4","4","4","4","0","0","0","0","0","0","4","4","4","4","4","4","4","4","4","4","0","4","NA","NA","NA","0","0","01/01/16 11:20:48","Default description","no","chinese-japanese-korean","no","18","white","開始實驗B","768","legacy","C:/Users/Evonne/Desktop/test/Compatibility/3_Data Collection/RAW/B-1.csv","xpyriment","Interactive Ising","3.0.2","yes","0","/","NA","NA","space","space","/","space","space","/","space","875","NA","NA","2858","3422","9968","12324","9205","875","3676","legacy","500","experiment","1","odd","NA","NA","NA","100268","NA","NA","NA","NA","NA","NA","139993","NA","NA","NA","100257","141675","140133","NA","100258","142676","NA","NA","133222","142679","71672","74534","77960","87932","62462","8869","143179","NA","NA","133725","143182","143182","109807","144063","126212","144163","58718","139992","NA","NA","NA","100268","8742","Hommel2002EXP01","3","7417","5","yes","1024"
"y","no","yes","circle","66.6666666667","66.6666666667","1496","1496","black","no","xpyriment","legacy","yellow","blue","green","red","legacy","0","uniform","1","1","z","1","NA","NA","0","NA","NA","NA","NA","0","NA","5","0","0","0","0","5","5","0","0","5","5","5","5","5","0","0","0","0","0","0","5","5","5","5","5","5","5","5","5","5","0","5","NA","NA","NA","0","0","01/01/16 11:20:48","Default description","no","chinese-japanese-korean","no","18","white","開始實驗B","768","legacy","C:/Users/Evonne/Desktop/test/Compatibility/3_Data Collection/RAW/B-1.csv","xpyriment","Interactive Ising","3.0.2","yes","0","z","NA","NA","space","space","/","space","space","z","space","1564","NA","NA","2858","3422","9968","12324","9205","1564","3676","legacy","500","experiment","1","odd","NA","NA","NA","100268","NA","NA","NA","NA","NA","NA","148416","NA","NA","NA","100257","150105","148557","NA","100258","151106","151109","NA","133222","142679","71672","74534","77960","87932","62462","8869","151609","151612","NA","133725","143182","151613","109807","153182","126212","153283","58718","148416","NA","NA","NA","100268","8742","Hommel2002EXP01","4","8981","6","yes","1024"
"y","no","yes","rect","71.4285714286","71.4285714286","1539","1539","black","no","xpyriment","legacy","green","blue","yellow","red","legacy","0","uniform","1","1","/","1","NA","NA","0","NA","NA","NA","NA","0","NA","6","0","0","0","0","6","6","0","0","6","6","6","6","6","0","0","0","0","0","0","6","6","6","6","6","6","6","6","6","6","0","6","NA","NA","NA","0","0","01/01/16 11:20:48","Default description","no","chinese-japanese-korean","no","18","white","開始實驗B","768","legacy","C:/Users/Evonne/Desktop/test/Compatibility/3_Data Collection/RAW/B-1.csv","xpyriment","Interactive Ising","3.0.2","yes","0","/","NA","NA","space","space","/","space","space","/","space","1792","NA","NA","2858","3422","9968","12324","9205","1792","3676","legacy","500","experiment","1","odd","NA","NA","NA","100268","NA","NA","NA","NA","NA","NA","157376","NA","NA","NA","100257","159131","157583","NA","100258","160131","151109","NA","160135","142679","71672","74534","77960","87932","62462","8869","160635","151612","NA","160638","143182","160639","109807","162435","126212","162536","58718","157375","NA","NA","NA","100268","8742","Hommel2002EXP01","5","10773","7","yes","1024"
"n","no","yes","circle","75","75","1493","1493","black","no","xpyriment","legacy","red","blue","green","yellow","legacy","0","uniform","1","1","z","1","NA","NA","0","NA","NA","NA","NA","0","NA","7","0","0","0","0","7","7","0","0","7","7","7","7","7","0","0","0","0","0","0","7","7","7","7","7","7","7","7","7","7","0","7","NA","NA","NA","0","0","01/01/16 11:20:48","Default description","no","chinese-japanese-korean","no","18","white","開始實驗B","768","legacy","C:/Users/Evonne/Desktop/test/Compatibility/3_Data Collection/RAW/B-1.csv","xpyriment","Interactive Ising","3.0.2","yes","0","z","NA","NA","space","space","/","space","space","z","space","1176","NA","NA","2858","3422","9968","12324","9205","1176","3676","legacy","500","experiment","1","odd","NA","NA","NA","100268","NA","NA","NA","NA","NA","NA","166385","NA","NA","NA","100257","168181","166637","NA","100258","169182","151109","169185","160135","142679","71672","74534","77960","87932","62462","8869","169685","151612","169688","160638","143182","169689","109807","170870","126212","170971","58718","166384","NA","NA","NA","100268","8742","Hommel2002EXP01","6","11949","8","yes","1024"
"n","no","yes","circle","66.6666666667","66.6666666667","1492","1492","black","no","xpyriment","legacy","blue","green","yellow","red","legacy","0","uniform","0","0","z","1","NA","NA","0","NA","NA","NA","NA","0","NA","8","0","0","0","0","8","8","0","0","8","8","8","8","8","0","0","0","0","0","0","8","8","8","8","8","8","8","8","8","8","0","8","NA","NA","NA","0","0","01/01/16 11:20:48","Default description","no","chinese-japanese-korean","no","18","white","開始實驗B","768","legacy","C:/Users/Evonne/Desktop/test/Compatibility/3_Data Collection/RAW/B-1.csv","xpyriment","Interactive Ising","3.0.2","yes","0","/","NA","NA","space","space","/","space","space","/","space","1486","NA","NA","2858","3422","9968","12324","9205","1486","3676","legacy","0","experiment","1","odd","NA","NA","NA","100268","NA","NA","NA","NA","NA","NA","174795","NA","NA","NA","100257","176617","175075","NA","100258","177617","151109","177620","160135","142679","71672","74534","77960","87932","62462","8869","177621","151612","177623","160638","143182","177624","109807","170870","179117","179217","58718","174795","NA","NA","NA","100268","8742","Hommel2002EXP01","6","13435","9","yes","1024"
"n","no","yes","circle","60","60","1543","1543","black","no","xpyriment","legacy","green","yellow","red","blue","legacy","0","uniform","0","0","z","1","NA","NA","0","NA","NA","NA","NA","0","NA","9","0","0","0","0","9","9","0","0","9","9","9","9","9","0","0","0","0","0","0","9","9","9","9","9","9","9","9","9","9","0","9","NA","NA","NA","0","0","01/01/16 11:20:48","Default description","no","chinese-japanese-korean","no","18","white","開始實驗B","768","legacy","C:/Users/Evonne/Desktop/test/Compatibility/3_Data Collection/RAW/B-1.csv","xpyriment","Interactive Ising","3.0.2","yes","0","None","NA","NA","space","space","/","space","space","None","space","2000","NA","NA","2858","3422","9968","12324","9205","2000","3676","legacy","0","experiment","1","odd","NA","NA","NA","100268","NA","NA","NA","NA","NA","NA","183072","NA","NA","NA","100257","185024","183521","NA","100258","186024","151109","186028","160135","142679","71672","74534","77960","87932","62462","8869","186029","151612","186033","160638","143182","186034","188141","170870","188038","188242","58718","183072","NA","NA","NA","100268","8742","Hommel2002EXP01","6","15435","10","yes","1024"
"n","no","yes","circle","63.6363636364","63.6363636364","1563","1563","black","no","xpyriment","legacy","red","yellow","blue","green","legacy","0","uniform","1","1","z","1","NA","NA","0","NA","NA","NA","NA","0","NA","10","0","0","0","0","10","10","0","0","10","10","10","10","10","0","0","0","0","0","0","10","10","10","10","10","10","10","10","10","10","0","10","NA","NA","NA","0","0","01/01/16 11:20:48","Default description","no","chinese-japanese-korean","no","18","white","開始實驗B","768","legacy","C:/Users/Evonne/Desktop/test/Compatibility/3_Data Collection/RAW/B-1.csv","xpyriment","Interactive Ising","3.0.2","yes","0","z","NA","NA","space","space","/","space","space","z","space","1766","NA","NA","2858","3422","9968","12324","9205","1766","3676","legacy","500","experiment","1","odd","NA","NA","NA","100268","NA","NA","NA","NA","NA","NA","192417","NA","NA","NA","100257","194095","192548","NA","100258","195095","151109","195098","160135","142679","71672","74534","77960","87932","62462","8869","195598","151612","195601","160638","143182","195602","188141","197373","188038","197473","58718","192417","NA","NA","NA","100268","8742","Hommel2002EXP01","7","17201","11","yes","1024"
"y","no","yes","circle","66.6666666667","66.6666666667","1577","1577","black","no","xpyriment","legacy","red","yellow","blue","green","legacy","0","uniform","1","1","z","1","NA","NA","0","NA","NA","NA","NA","0","NA","11","0","0","0","0","11","11","0","0","11","11","11","11","11","0","0","0","0","0","0","11","11","11","11","11","11","11","11","11","11","0","11","NA","NA","NA","0","0","01/01/16 11:20:48","Default description","no","chinese-japanese-korean","no","18","white","開始實驗B","768","legacy","C:/Users/Evonne/Desktop/test/Compatibility/3_Data Collection/RAW/B-1.csv","xpyriment","Interactive Ising","3.0.2","yes","0","z","NA","NA","space","space","/","space","space","z","space","1726","NA","NA","2858","3422","9968","12324","9205","1726","3676","legacy","0","experiment","1","odd","NA","NA","NA","100268","NA","NA","NA","NA","NA","NA","201685","NA","NA","NA","100257","203431","201884","NA","100258","204431","204434","195098","160135","142679","71672","74534","77960","87932","62462","8869","204434","204437","195601","160638","143182","204438","188141","206169","188038","206270","58718","201684","NA","NA","NA","100268","8742","Hommel2002EXP01","8","18927","12","yes","1024"
"y","no","yes","rect","69.2307692308","69.2307692308","1566","1566","black","no","xpyriment","legacy","green","yellow","blue","red","legacy","0","uniform","1","1","/","1","NA","NA","0","NA","NA","NA","NA","0","NA","12","0","0","0","0","12","12","0","0","12","12","12","12","12","0","0","0","0","0","0","12","12","12","12","12","12","12","12","12","12","0","12","NA","NA","NA","0","0","01/01/16 11:20:48","Default description","no","chinese-japanese-korean","no","18","white","開始實驗B","768","legacy","C:/Users/Evonne/Desktop/test/Compatibility/3_Data Collection/RAW/B-1.csv","xpyriment","Interactive Ising","3.0.2","yes","0","/","NA","NA","space","space","/","space","space","/","space","1433","NA","NA","2858","3422","9968","12324","9205","1433","3676","legacy","0","experiment","1","odd","NA","NA","NA","100268","NA","NA","NA","NA","NA","NA","210485","NA","NA","NA","100257","212174","210629","NA","100258","213174","204434","195098","213177","142679","71672","74534","77960","87932","62462","8869","213177","204437","195601","213180","143182","213181","188141","214619","188038","214719","58718","210484","NA","NA","NA","100268","8742","Hommel2002EXP01","9","20360","13","yes","1024"
"y","no","yes","circle","64.2857142857","64.2857142857","1555","1555","black","no","xpyriment","legacy","red","green","blue","yellow","legacy","0","uniform","0","0","z","1","NA","NA","0","NA","NA","NA","NA","0","NA","13","0","0","0","0","13","13","0","0","13","13","13","13","13","0","0","0","0","0","0","13","13","13","13","13","13","13","13","13","13","0","13","NA","NA","NA","0","0","01/01/16 11:20:48","Default description","no","chinese-japanese-korean","no","18","white","開始實驗B","768","legacy","C:/Users/Evonne/Desktop/test/Compatibility/3_Data Collection/RAW/B-1.csv","xpyriment","Interactive Ising","3.0.2","yes","0","/","NA","NA","space","space","/","space","space","/","space","1421","NA","NA","2858","3422","9968","12324","9205","1421","3676","legacy","0","experiment","1","odd","NA","NA","NA","100268","NA","NA","NA","NA","NA","NA","218948","NA","NA","NA","100257","220713","219166","NA","100258","221713","221716","195098","213177","142679","71672","74534","77960","87932","62462","8869","221717","221720","195601","213180","143182","221720","188141","214619","223146","223246","58718","218948","NA","NA","NA","100268","8742","Hommel2002EXP01","9","21781","14","yes","1024"
"y","no","yes","circle","60","60","1585","1585","black","no","xpyriment","legacy","yellow","green","blue","red","legacy","0","uniform","0","0","z","1","NA","NA","0","NA","NA","NA","NA","0","NA","14","0","0","0","0","14","14","0","0","14","14","14","14","14","0","0","0","0","0","0","14","14","14","14","14","14","14","14","14","14","0","14","NA","NA","NA","0","0","01/01/16 11:20:48","Default description","no","chinese-japanese-korean","no","18","white","開始實驗B","768","legacy","C:/Users/Evonne/Desktop/test/Compatibility/3_Data Collection/RAW/B-1.csv","xpyriment","Interactive Ising","3.0.2","yes","0","None","NA","NA","space","space","/","space","space","None","space","2000","NA","NA","2858","3422","9968","12324","9205","2000","3676","legacy","500","experiment","1","odd","NA","NA","NA","100268","NA","NA","NA","NA","NA","NA","227253","NA","NA","NA","100257","229063","227513","NA","100258","230064","230067","195098","213177","142679","71672","74534","77960","87932","62462","8869","230568","230571","195601","213180","143182","230572","232679","214619","232576","232779","58718","227252","NA","NA","NA","100268","8742","Hommel2002EXP01","9","23781","15","yes","1024"
"y","no","yes","rect","62.5","62.5","1550","1550","black","no","xpyriment","legacy","green","blue","red","yellow","legacy","0","uniform","1","1","/","1","NA","NA","0","NA","NA","NA","NA","0","NA","15","0","0","0","0","15","15","0","0","15","15","15","15","15","0","0","0","0","0","0","15","15","15","15","15","15","15","15","15","15","0","15","NA","NA","NA","0","0","01/01/16 11:20:48","Default description","no","chinese-japanese-korean","no","18","white","開始實驗B","768","legacy","C:/Users/Evonne/Desktop/test/Compatibility/3_Data Collection/RAW/B-1.csv","xpyriment","Interactive Ising","3.0.2","yes","0","/","NA","NA","space","space","/","space","space","/","space","1021","NA","NA","2858","3422","9968","12324","9205","1021","3676","legacy","0","experiment","1","odd","NA","NA","NA","100268","NA","NA","NA","NA","NA","NA","237056","NA","NA","NA","100257","238878","237333","NA","100258","239878","230067","195098","239881","142679","71672","74534","77960","87932","62462","8869","239881","230571","195601","239885","143182","239885","232679","240911","232576","241012","58718","237055","NA","NA","NA","100268","8742","Hommel2002EXP01","10","24802","16","yes","1024"
"y","no","yes","circle","100","100","1350","1350","black","no","xpyriment","legacy","red","green","yellow","blue","legacy","0","uniform","1","1","z","1","NA","NA","1","NA","NA","NA","NA","1","NA","16","0","0","0","0","16","16","0","0","16","16","16","16","16","0","0","0","0","0","0","16","16","16","16","16","16","16","16","16","16","0","16","NA","NA","NA","1","0","01/01/16 11:20:48","Default description","no","chinese-japanese-korean","no","18","white","開始實驗B","768","legacy","C:/Users/Evonne/Desktop/test/Compatibility/3_Data Collection/RAW/B-1.csv","xpyriment","Interactive Ising","3.0.2","yes","0","z","NA","NA","space","space","/","space","space","z","space","1350","NA","NA","2858","3422","9968","12324","9205","1350","3676","legacy","500","experiment","1","odd","NA","NA","NA","241062","NA","NA","NA","NA","NA","NA","245210","NA","NA","NA","100257","247137","245633","NA","100258","248137","248140","195098","239881","142679","71672","74534","77960","87932","62462","8869","248641","248644","195601","239885","143182","248645","232679","250000","232576","250101","58718","245210","NA","NA","NA","241063","8742","Hommel2002EXP01","1","1350","1","yes","1024"
"y","no","yes","rect","100","100","1206","1206","black","no","xpyriment","legacy","blue","red","yellow","green","legacy","0","uniform","1","1","/","1","NA","NA","1","NA","NA","NA","NA","1","NA","17","0","0","0","0","17","17","0","0","17","17","17","17","17","0","0","0","0","0","0","17","17","17","17","17","17","17","17","17","17","0","17","NA","NA","NA","1","0","01/01/16 11:20:48","Default description","no","chinese-japanese-korean","no","18","white","開始實驗B","768","legacy","C:/Users/Evonne/Desktop/test/Compatibility/3_Data Collection/RAW/B-1.csv","xpyriment","Interactive Ising","3.0.2","yes","0","/","NA","NA","space","space","/","space","space","/","space","1063","NA","NA","2858","3422","9968","12324","9205","1063","3676","legacy","500","experiment","1","odd","NA","NA","NA","241062","NA","NA","NA","NA","NA","NA","253921","NA","NA","NA","100257","255601","254054","NA","100258","256601","248140","195098","256605","142679","71672","74534","77960","87932","62462","8869","257105","248644","195601","257108","143182","257108","232679","258177","232576","258277","58718","253920","NA","NA","NA","241063","8742","Hommel2002EXP01","2","2413","2","yes","1024"
"n","no","yes","circle","100","100","1413","1413","black","no","xpyriment","legacy","green","blue","red","yellow","legacy","0","uniform","1","1","z","1","NA","NA","1","NA","NA","NA","NA","1","NA","18","0","0","0","0","18","18","0","0","18","18","18","18","18","0","0","0","0","0","0","18","18","18","18","18","18","18","18","18","18","0","18","NA","NA","NA","1","0","01/01/16 11:20:48","Default description","no","chinese-japanese-korean","no","18","white","開始實驗B","768","legacy","C:/Users/Evonne/Desktop/test/Compatibility/3_Data Collection/RAW/B-1.csv","xpyriment","Interactive Ising","3.0.2","yes","0","z","NA","NA","space","space","/","space","space","z","space","1828","NA","NA","2858","3422","9968","12324","9205","1828","3676","legacy","0","experiment","1","odd","NA","NA","NA","241062","NA","NA","NA","NA","NA","NA","262306","NA","NA","NA","100257","264025","262478","NA","100258","265025","248140","265028","256605","142679","71672","74534","77960","87932","62462","8869","265029","248644","265031","257108","143182","265032","232679","266866","232576","266966","58718","262305","NA","NA","NA","241063","8742","Hommel2002EXP01","3","4241","3","yes","1024"
"n","no","yes","rect","100","100","1339","1339","black","no","xpyriment","legacy","yellow","green","red","blue","legacy","0","uniform","1","1","/","1","NA","NA","1","NA","NA","NA","NA","1","NA","19","0","0","0","0","19","19","0","0","19","19","19","19","19","0","0","0","0","0","0","19","19","19","19","19","19","19","19","19","19","0","19","NA","NA","NA","1","0","01/01/16 11:20:48","Default description","no","chinese-japanese-korean","no","18","white","開始實驗B","768","legacy","C:/Users/Evonne/Desktop/test/Compatibility/3_Data Collection/RAW/B-1.csv","xpyriment","Interactive Ising","3.0.2","yes","0","/","NA","NA","space","space","/","space","space","/","space","1116","NA","NA","2858","3422","9968","12324","9205","1116","3676","legacy","500","experiment","1","odd","NA","NA","NA","241062","NA","NA","NA","NA","NA","NA","271212","NA","NA","NA","100257","272920","271375","NA","100258","273920","248140","265028","256605","273923","71672","74534","77960","87932","62462","8869","274423","248644","265031","257108","274426","274426","232679","275548","232576","275648","58718","271212","NA","NA","NA","241063","8742","Hommel2002EXP01","4","5357","4","yes","1024"
"n","no","yes","rect","100","100","1253","1253","black","no","xpyriment","legacy","yellow","blue","red","green","legacy","0","uniform","1","1","/","1","NA","NA","1","NA","NA","NA","NA","1","NA","20","0","0","0","0","20","20","0","0","20","20","20","20","20","0","0","0","0","0","0","20","20","20","20","20","20","20","20","20","20","0","20","NA","NA","NA","1","0","01/01/16 11:20:48","Default description","no","chinese-japanese-korean","no","18","white","開始實驗B","768","legacy","C:/Users/Evonne/Desktop/test/Compatibility/3_Data Collection/RAW/B-1.csv","xpyriment","Interactive Ising","3.0.2","yes","0","/","NA","NA","space","space","/","space","space","/","space","910","NA","NA","2858","3422","9968","12324","9205","910","3676","legacy","500","experiment","1","odd","NA","NA","NA","241062","NA","NA","NA","NA","NA","NA","279711","NA","NA","NA","100257","281499","279953","NA","100258","282500","248140","265028","256605","282503","71672","74534","77960","87932","62462","8869","283003","248644","265031","257108","283006","283007","232679","283922","232576","284022","58718","279711","NA","NA","NA","241063","8742","Hommel2002EXP01","5","6267","5","yes","1024"
"y","no","yes","rect","100","100","1195","1195","black","no","xpyriment","legacy","blue","yellow","green","red","legacy","0","uniform","1","1","/","1","NA","NA","1","NA","NA","NA","NA","1","NA","21","0","0","0","0","21","21","0","0","21","21","21","21","21","0","0","0","0","0","0","21","21","21","21","21","21","21","21","21","21","0","21","NA","NA","NA","1","0","01/01/16 11:20:48","Default description","no","chinese-japanese-korean","no","18","white","開始實驗B","768","legacy","C:/Users/Evonne/Desktop/test/Compatibility/3_Data Collection/RAW/B-1.csv","xpyriment","Interactive Ising","3.0.2","yes","0","/","NA","NA","space","space","/","space","space","/","space","908","NA","NA","2858","3422","9968","12324","9205","908","3676","legacy","500","experiment","1","odd","NA","NA","NA","241062","NA","NA","NA","NA","NA","NA","288012","NA","NA","NA","100257","289830","288294","NA","100258","290831","248140","265028","290835","282503","71672","74534","77960","87932","62462","8869","291335","248644","265031","291338","283006","291338","232679","292251","232576","292351","58718","288011","NA","NA","NA","241063","8742","Hommel2002EXP01","6","7175","6","yes","1024"
"y","no","yes","circle","100","100","1193","1193","black","no","xpyriment","legacy","green","blue","yellow","red","legacy","0","uniform","1","1","z","1","NA","NA","1","NA","NA","NA","NA","1","NA","22","0","0","0","0","22","22","0","0","22","22","22","22","22","0","0","0","0","0","0","22","22","22","22","22","22","22","22","22","22","0","22","NA","NA","NA","1","0","01/01/16 11:20:48","Default description","no","chinese-japanese-korean","no","18","white","開始實驗B","768","legacy","C:/Users/Evonne/Desktop/test/Compatibility/3_Data Collection/RAW/B-1.csv","xpyriment","Interactive Ising","3.0.2","yes","0","z","NA","NA","space","space","/","space","space","z","space","1180","NA","NA","2858","3422","9968","12324","9205","1180","3676","legacy","500","experiment","1","odd","NA","NA","NA","241062","NA","NA","NA","NA","NA","NA","296279","NA","NA","NA","100257","298264","296762","NA","100258","299265","299268","265028","290835","282503","71672","74534","77960","87932","62462","8869","299768","299771","265031","291338","283006","299772","232679","300957","232576","301057","58718","296279","NA","NA","NA","241063","8742","Hommel2002EXP01","7","8355","7","yes","1024"
"n","no","yes","circle","87.5","87.5","1293","1293","black","no","xpyriment","legacy","green","blue","yellow","red","legacy","0","uniform","0","0","z","1","NA","NA","1","NA","NA","NA","NA","1","NA","23","0","0","0","0","23","23","0","0","23","23","23","23","23","0","0","0","0","0","0","23","23","23","23","23","23","23","23","23","23","0","23","NA","NA","NA","1","0","01/01/16 11:20:48","Default description","no","chinese-japanese-korean","no","18","white","開始實驗B","768","legacy","C:/Users/Evonne/Desktop/test/Compatibility/3_Data Collection/RAW/B-1.csv","xpyriment","Interactive Ising","3.0.2","yes","0","/","NA","NA","space","space","/","space","space","/","space","1996","NA","NA","2858","3422","9968","12324","9205","1996","3676","legacy","500","experiment","1","odd","NA","NA","NA","241062","NA","NA","NA","NA","NA","NA","304569","NA","NA","NA","100257","306257","304709","NA","100258","307257","299268","307260","290835","282503","71672","74534","77960","87932","62462","8869","307760","299771","307763","291338","283006","307764","232679","300957","309765","309865","58718","304569","NA","NA","NA","241063","8742","Hommel2002EXP01","7","10351","8","yes","1024"
"n","no","yes","circle","88.8888888889","88.8888888889","1276","1276","black","no","xpyriment","legacy","yellow","red","green","blue","legacy","0","uniform","1","1","z","1","NA","NA","1","NA","NA","NA","NA","1","NA","24","0","0","0","0","24","24","0","0","24","24","24","24","24","0","0","0","0","0","0","24","24","24","24","24","24","24","24","24","24","0","24","NA","NA","NA","1","0","01/01/16 11:20:48","Default description","no","chinese-japanese-korean","no","18","white","開始實驗B","768","legacy","C:/Users/Evonne/Desktop/test/Compatibility/3_Data Collection/RAW/B-1.csv","xpyriment","Interactive Ising","3.0.2","yes","0","z","NA","NA","space","space","/","space","space","z","space","1137","NA","NA","2858","3422","9968","12324","9205","1137","3676","legacy","500","experiment","1","odd","NA","NA","NA","241062","NA","NA","NA","NA","NA","NA","314070","NA","NA","NA","100257","315763","314223","NA","100258","316764","299268","316768","290835","282503","71672","74534","77960","87932","62462","8869","317268","299771","317272","291338","283006","317273","232679","318417","309765","318517","58718","314069","NA","NA","NA","241063","8742","Hommel2002EXP01","8","11488","9","yes","1024"
"n","no","yes","rect","90","90","1259","1259","black","no","xpyriment","legacy","blue","green","yellow","red","legacy","0","uniform","1","1","/","1","NA","NA","1","NA","NA","NA","NA","1","NA","25","0","0","0","0","25","25","0","0","25","25","25","25","25","0","0","0","0","0","0","25","25","25","25","25","25","25","25","25","25","0","25","NA","NA","NA","1","0","01/01/16 11:20:48","Default description","no","chinese-japanese-korean","no","18","white","開始實驗B","768","legacy","C:/Users/Evonne/Desktop/test/Compatibility/3_Data Collection/RAW/B-1.csv","xpyriment","Interactive Ising","3.0.2","yes","0","/","NA","NA","space","space","/","space","space","/","space","1111","NA","NA","2858","3422","9968","12324","9205","1111","3676","legacy","0","experiment","1","odd","NA","NA","NA","241062","NA","NA","NA","NA","NA","NA","322614","NA","NA","NA","100257","324299","322755","NA","100258","325300","299268","316768","290835","325303","71672","74534","77960","87932","62462","8869","325304","299771","317272","291338","325308","325308","232679","326425","309765","326526","58718","322613","NA","NA","NA","241063","8742","Hommel2002EXP01","9","12599","10","yes","1024"
"y","no","yes","circle","90.9090909091","90.9090909091","1244","1244","black","no","xpyriment","legacy","blue","green","yellow","red","legacy","0","uniform","1","1","z","1","NA","NA","1","NA","NA","NA","NA","1","NA","26","0","0","0","0","26","26","0","0","26","26","26","26","26","0","0","0","0","0","0","26","26","26","26","26","26","26","26","26","26","0","26","NA","NA","NA","1","0","01/01/16 11:20:48","Default description","no","chinese-japanese-korean","no","18","white","開始實驗B","768","legacy","C:/Users/Evonne/Desktop/test/Compatibility/3_Data Collection/RAW/B-1.csv","xpyriment","Interactive Ising","3.0.2","yes","0","z","NA","NA","space","space","/","space","space","z","space","1088","NA","NA","2858","3422","9968","12324","9205","1088","3676","legacy","0","experiment","1","odd","NA","NA","NA","241062","NA","NA","NA","NA","NA","NA","330493","NA","NA","NA","100257","332263","330717","NA","100258","333263","333266","316768","290835","325303","71672","74534","77960","87932","62462","8869","333266","333269","317272","291338","325308","333270","232679","334363","309765","334463","58718","330492","NA","NA","NA","241063","8742","Hommel2002EXP01","10","13687","11","yes","1024"
"n","no","yes","circle","91.6666666667","91.6666666667","1251","1251","black","no","xpyriment","legacy","green","red","yellow","blue","legacy","0","uniform","1","1","z","1","NA","NA","1","NA","NA","NA","NA","1","NA","27","0","0","0","0","27","27","0","0","27","27","27","27","27","0","0","0","0","0","0","27","27","27","27","27","27","27","27","27","27","0","27","NA","NA","NA","1","0","01/01/16 11:20:48","Default description","no","chinese-japanese-korean","no","18","white","開始實驗B","768","legacy","C:/Users/Evonne/Desktop/test/Compatibility/3_Data Collection/RAW/B-1.csv","xpyriment","Interactive Ising","3.0.2","yes","0","z","NA","NA","space","space","/","space","space","z","space","1327","NA","NA","2858","3422","9968","12324","9205","1327","3676","legacy","0","experiment","1","odd","NA","NA","NA","241062","NA","NA","NA","NA","NA","NA","338550","NA","NA","NA","100257","340386","338837","NA","100258","341387","333266","341390","290835","325303","71672","74534","77960","87932","62462","8869","341390","333269","341393","291338","325308","341394","232679","342726","309765","342826","58718","338549","NA","NA","NA","241063","8742","Hommel2002EXP01","11","15014","12","yes","1024"
"y","no","yes","rect","92.3076923077","92.3076923077","1243","1243","black","no","xpyriment","legacy","red","blue","green","yellow","legacy","0","uniform","1","1","/","1","NA","NA","1","NA","NA","NA","NA","1","NA","28","0","0","0","0","28","28","0","0","28","28","28","28","28","0","0","0","0","0","0","28","28","28","28","28","28","28","28","28","28","0","28","NA","NA","NA","1","0","01/01/16 11:20:48","Default description","no","chinese-japanese-korean","no","18","white","開始實驗B","768","legacy","C:/Users/Evonne/Desktop/test/Compatibility/3_Data Collection/RAW/B-1.csv","xpyriment","Interactive Ising","3.0.2","yes","0","/","NA","NA","space","space","/","space","space","/","space","1156","NA","NA","2858","3422","9968","12324","9205","1156","3676","legacy","0","experiment","1","odd","NA","NA","NA","241062","NA","NA","NA","NA","NA","NA","346785","NA","NA","NA","100257","348615","347072","NA","100258","349615","333266","341390","349618","325303","71672","74534","77960","87932","62462","8869","349618","333269","341393","349852","325308","349853","232679","351014","309765","351115","58718","346784","NA","NA","NA","241063","8742","Hommel2002EXP01","12","16170","13","yes","1024"
"n","no","yes","rect","92.8571428571","92.8571428571","1266","1266","black","no","xpyriment","legacy","yellow","green","blue","red","legacy","0","uniform","1","1","/","1","NA","NA","1","NA","NA","NA","NA","1","NA","29","0","0","0","0","29","29","0","0","29","29","29","29","29","0","0","0","0","0","0","29","29","29","29","29","29","29","29","29","29","0","29","NA","NA","NA","1","0","01/01/16 11:20:48","Default description","no","chinese-japanese-korean","no","18","white","開始實驗B","768","legacy","C:/Users/Evonne/Desktop/test/Compatibility/3_Data Collection/RAW/B-1.csv","xpyriment","Interactive Ising","3.0.2","yes","0","/","NA","NA","space","space","/","space","space","/","space","1567","NA","NA","2858","3422","9968","12324","9205","1567","3676","legacy","0","experiment","1","odd","NA","NA","NA","241062","NA","NA","NA","NA","NA","NA","355013","NA","NA","NA","100257","356739","355188","NA","100258","357739","333266","341390","349618","357742","71672","74534","77960","87932","62462","8869","357743","333269","341393","349852","357746","357746","232679","359320","309765","359420","58718","355012","NA","NA","NA","241063","8742","Hommel2002EXP01","13","17737","14","yes","1024"
"y","no","yes","circle","93.3333333333","93.3333333333","1269","1269","black","no","xpyriment","legacy","blue","red","green","yellow","legacy","0","uniform","1","1","z","1","NA","NA","1","NA","NA","NA","NA","1","NA","30","0","0","0","0","30","30","0","0","30","30","30","30","30","0","0","0","0","0","0","30","30","30","30","30","30","30","30","30","30","0","30","NA","NA","NA","1","0","01/01/16 11:20:48","Default description","no","chinese-japanese-korean","no","18","white","開始實驗B","768","legacy","C:/Users/Evonne/Desktop/test/Compatibility/3_Data Collection/RAW/B-1.csv","xpyriment","Interactive Ising","3.0.2","yes","0","z","NA","NA","space","space","/","space","space","z","space","1304","NA","NA","2858","3422","9968","12324","9205","1304","3676","legacy","0","experiment","1","odd","NA","NA","NA","241062","NA","NA","NA","NA","NA","NA","363275","NA","NA","NA","100257","364977","363430","NA","100258","365977","365980","341390","349618","357742","71672","74534","77960","87932","62462","8869","365981","365983","341393","349852","357746","365984","232679","367293","309765","367393","58718","363274","NA","NA","NA","241063","8742","Hommel2002EXP01","14","19041","15","yes","1024"
"y","no","yes","rect","93.75","93.75","1255","1255","black","no","xpyriment","legacy","red","green","blue","yellow","legacy","0","uniform","1","1","/","1","NA","NA","1","NA","NA","NA","NA","1","NA","31","0","0","0","0","31","31","0","0","31","31","31","31","31","0","0","0","0","0","0","31","31","31","31","31","31","31","31","31","31","0","31","NA","NA","NA","1","0","01/01/16 11:20:48","Default description","no","chinese-japanese-korean","no","18","white","開始實驗B","768","legacy","C:/Users/Evonne/Desktop/test/Compatibility/3_Data Collection/RAW/B-1.csv","xpyriment","Interactive Ising","3.0.2","yes","0","/","NA","NA","space","space","/","space","space","/","space","1050","NA","NA","2858","3422","9968","12324","9205","1050","3676","legacy","0","experiment","1","odd","NA","NA","NA","241062","NA","NA","NA","NA","NA","NA","372490","NA","NA","NA","100257","374288","372738","NA","100258","375289","365980","341390","375293","357742","71672","74534","77960","87932","62462","8869","375293","365983","341393","375296","357746","375297","232679","376352","309765","376452","58718","372490","NA","NA","NA","241063","8742","Hommel2002EXP01","15","20091","16","yes","1024"
"n","no","yes","circle","100","100","1778","1778","black","no","xpyriment","legacy","green","red","blue","yellow","legacy","0","uniform","1","1","z","1","NA","NA","2","NA","NA","NA","NA","2","0","32","0","0","0","0","32","32","0","0","32","32","32","32","32","0","0","0","0","0","0","32","32","32","32","32","32","32","32","32","32","0","32","NA","NA","NA","2","0","01/01/16 11:20:48","Default description","no","chinese-japanese-korean","no","18","white","開始實驗B","768","legacy","C:/Users/Evonne/Desktop/test/Compatibility/3_Data Collection/RAW/B-1.csv","xpyriment","Interactive Ising","3.0.2","yes","0","z","NA","space","space","space","/","space","space","z","space","1778","NA","10799","2858","3422","9968","12324","9205","1778","3676","legacy","0","experiment","1","odd","NA","NA","NA","388038","NA","NA","NA","NA","NA","377232","392469","NA","NA","NA","100257","394289","392743","NA","100258","395290","365980","395294","375293","357742","71672","74534","77960","87932","62462","8869","395294","365983","395297","375296","357746","395298","232679","397081","309765","397181","58718","392468","NA","NA","NA","388039","8742","Hommel2002EXP01","1","1778","1","yes","1024"
"n","no","yes","circle","100","100","1345","1345","black","no","xpyriment","legacy","blue","green","red","yellow","legacy","0","uniform","1","1","z","1","NA","NA","2","NA","NA","NA","NA","2","0","33","0","0","0","0","33","33","0","0","33","33","33","33","33","0","0","0","0","0","0","33","33","33","33","33","33","33","33","33","33","0","33","NA","NA","NA","2","0","01/01/16 11:20:48","Default description","no","chinese-japanese-korean","no","18","white","開始實驗B","768","legacy","C:/Users/Evonne/Desktop/test/Compatibility/3_Data Collection/RAW/B-1.csv","xpyriment","Interactive Ising","3.0.2","yes","0","z","NA","space","space","space","/","space","space","z","space","912","NA","10799","2858","3422","9968","12324","9205","912","3676","legacy","500","experiment","1","odd","NA","NA","NA","388038","NA","NA","NA","NA","NA","377232","401132","NA","NA","NA","100257","402974","401427","NA","100258","403975","365980","403978","375293","357742","71672","74534","77960","87932","62462","8869","404478","365983","404481","375296","357746","404481","232679","405399","309765","405499","58718","401131","NA","NA","NA","388039","8742","Hommel2002EXP01","2","2690","2","yes","1024"
"n","no","yes","rect","100","100","1223","1223","black","no","xpyriment","legacy","red","green","blue","yellow","legacy","0","uniform","1","1","/","1","NA","NA","2","NA","NA","NA","NA","2","0","34","0","0","0","0","34","34","0","0","34","34","34","34","34","0","0","0","0","0","0","34","34","34","34","34","34","34","34","34","34","0","34","NA","NA","NA","2","0","01/01/16 11:20:48","Default description","no","chinese-japanese-korean","no","18","white","開始實驗B","768","legacy","C:/Users/Evonne/Desktop/test/Compatibility/3_Data Collection/RAW/B-1.csv","xpyriment","Interactive Ising","3.0.2","yes","0","/","NA","space","space","space","/","space","space","/","space","980","NA","10799","2858","3422","9968","12324","9205","980","3676","legacy","500","experiment","1","odd","NA","NA","NA","388038","NA","NA","NA","NA","NA","377232","409354","NA","NA","NA","100257","411189","409640","NA","100258","412189","365980","403978","375293","412192","71672","74534","77960","87932","62462","8869","412692","365983","404481","375296","412695","412696","232679","413681","309765","413781","58718","409353","NA","NA","NA","388039","8742","Hommel2002EXP01","3","3670","3","yes","1024"
"n","no","yes","circle","100","100","1306","1306","black","no","xpyriment","legacy","blue","red","yellow","green","legacy","0","uniform","1","1","z","1","NA","NA","2","NA","NA","NA","NA","2","0","35","0","0","0","0","35","35","0","0","35","35","35","35","35","0","0","0","0","0","0","35","35","35","35","35","35","35","35","35","35","0","35","NA","NA","NA","2","0","01/01/16 11:20:48","Default description","no","chinese-japanese-korean","no","18","white","開始實驗B","768","legacy","C:/Users/Evonne/Desktop/test/Compatibility/3_Data Collection/RAW/B-1.csv","xpyriment","Interactive Ising","3.0.2","yes","0","z","NA","space","space","space","/","space","space","z","space","1556","NA","10799","2858","3422","9968","12324","9205","1556","3676","legacy","0","experiment","1","odd","NA","NA","NA","388038","NA","NA","NA","NA","NA","377232","417689","NA","NA","NA","100257","419604","418102","NA","100258","420605","365980","420608","375293","412192","71672","74534","77960","87932","62462","8869","420609","365983","420611","375296","412695","420612","232679","422174","309765","422274","58718","417689","NA","NA","NA","388039","8742","Hommel2002EXP01","4","5226","4","yes","1024"
"y","no","yes","rect","100","100","1381","1381","black","no","xpyriment","legacy","red","blue","yellow","green","legacy","0","uniform","1","1","/","1","NA","NA","2","NA","NA","NA","NA","2","0","36","0","0","0","0","36","36","0","0","36","36","36","36","36","0","0","0","0","0","0","36","36","36","36","36","36","36","36","36","36","0","36","NA","NA","NA","2","0","01/01/16 11:20:48","Default description","no","chinese-japanese-korean","no","18","white","開始實驗B","768","legacy","C:/Users/Evonne/Desktop/test/Compatibility/3_Data Collection/RAW/B-1.csv","xpyriment","Interactive Ising","3.0.2","yes","0","/","NA","space","space","space","/","space","space","/","space","1682","NA","10799","2858","3422","9968","12324","9205","1682","3676","legacy","500","experiment","1","odd","NA","NA","NA","388038","NA","NA","NA","NA","NA","377232","425955","NA","NA","NA","100257","427655","426104","NA","100258","428655","365980","420608","428658","412192","71672","74534","77960","87932","62462","8869","429158","365983","420611","429161","412695","429162","232679","430850","309765","430950","58718","425955","NA","NA","NA","388039","8742","Hommel2002EXP01","5","6908","5","yes","1024"
"y","no","yes","rect","100","100","1300","1300","black","no","xpyriment","legacy","green","yellow","red","blue","legacy","0","uniform","1","1","/","1","NA","NA","2","NA","NA","NA","NA","2","0","37","0","0","0","0","37","37","0","0","37","37","37","37","37","0","0","0","0","0","0","37","37","37","37","37","37","37","37","37","37","0","37","NA","NA","NA","2","0","01/01/16 11:20:48","Default description","no","chinese-japanese-korean","no","18","white","開始實驗B","768","legacy","C:/Users/Evonne/Desktop/test/Compatibility/3_Data Collection/RAW/B-1.csv","xpyriment","Interactive Ising","3.0.2","yes","0","/","NA","space","space","space","/","space","space","/","space","895","NA","10799","2858","3422","9968","12324","9205","895","3676","legacy","500","experiment","1","odd","NA","NA","NA","388038","NA","NA","NA","NA","NA","377232","435071","NA","NA","NA","100257","436804","435263","NA","100258","437804","365980","420608","437807","412192","71672","74534","77960","87932","62462","8869","438307","365983","420611","438310","412695","438310","232679","439210","309765","439310","58718","435070","NA","NA","NA","388039","8742","Hommel2002EXP01","6","7803","6","yes","1024"
"n","no","yes","circle","100","100","1242","1242","black","no","xpyriment","legacy","yellow","green","red","blue","legacy","0","uniform","1","1","z","1","NA","NA","2","NA","NA","NA","NA","2","0","38","0","0","0","0","38","38","0","0","38","38","38","38","38","0","0","0","0","0","0","38","38","38","38","38","38","38","38","38","38","0","38","NA","NA","NA","2","0","01/01/16 11:20:48","Default description","no","chinese-japanese-korean","no","18","white","開始實驗B","768","legacy","C:/Users/Evonne/Desktop/test/Compatibility/3_Data Collection/RAW/B-1.csv","xpyriment","Interactive Ising","3.0.2","yes","0","z","NA","space","space","space","/","space","space","z","space","892","NA","10799","2858","3422","9968","12324","9205","892","3676","legacy","500","experiment","1","odd","NA","NA","NA","388038","NA","NA","NA","NA","NA","377232","443333","NA","NA","NA","100257","445172","443615","NA","100258","446173","365980","446176","437807","412192","71672","74534","77960","87932","62462","8869","446677","365983","446680","438310","412695","446681","232679","447578","309765","447678","58718","443333","NA","NA","NA","388039","8742","Hommel2002EXP01","7","8695","7","yes","1024"
"n","no","yes","rect","100","100","1234","1234","black","no","xpyriment","legacy","blue","yellow","red","green","legacy","0","uniform","1","1","/","1","NA","NA","2","NA","NA","NA","NA","2","0","39","0","0","0","0","39","39","0","0","39","39","39","39","39","0","0","0","0","0","0","39","39","39","39","39","39","39","39","39","39","0","39","NA","NA","NA","2","0","01/01/16 11:20:48","Default description","no","chinese-japanese-korean","no","18","white","開始實驗B","768","legacy","C:/Users/Evonne/Desktop/test/Compatibility/3_Data Collection/RAW/B-1.csv","xpyriment","Interactive Ising","3.0.2","yes","0","/","NA","space","space","space","/","space","space","/","space","1178","NA","10799","2858","3422","9968","12324","9205","1178","3676","legacy","0","experiment","1","odd","NA","NA","NA","388038","NA","NA","NA","NA","NA","377232","451846","NA","NA","NA","100257","453639","452088","NA","100258","454639","365980","446176","437807","454642","71672","74534","77960","87932","62462","8869","454643","365983","446680","438310","454646","454647","232679","455830","309765","455931","58718","451846","NA","NA","NA","388039","8742","Hommel2002EXP01","8","9873","8","yes","1024"
"y","no","yes","circle","100","100","1231","1231","black","no","xpyriment","legacy","green","yellow","blue","red","legacy","0","uniform","1","1","z","1","NA","NA","2","NA","NA","NA","NA","2","0","40","0","0","0","0","40","40","0","0","40","40","40","40","40","0","0","0","0","0","0","40","40","40","40","40","40","40","40","40","40","0","40","NA","NA","NA","2","0","01/01/16 11:20:48","Default description","no","chinese-japanese-korean","no","18","white","開始實驗B","768","legacy","C:/Users/Evonne/Desktop/test/Compatibility/3_Data Collection/RAW/B-1.csv","xpyriment","Interactive Ising","3.0.2","yes","0","z","NA","space","space","space","/","space","space","z","space","1210","NA","10799","2858","3422","9968","12324","9205","1210","3676","legacy","0","experiment","1","odd","NA","NA","NA","388038","NA","NA","NA","NA","NA","377232","460067","NA","NA","NA","100257","461803","460255","NA","100258","462804","462807","446176","437807","454642","71672","74534","77960","87932","62462","8869","462807","462810","446680","438310","454646","462811","232679","464028","309765","464129","58718","460066","NA","NA","NA","388039","8742","Hommel2002EXP01","9","11083","9","yes","1024"
"y","no","yes","rect","100","100","1228","1228","black","no","xpyriment","legacy","blue","yellow","red","green","legacy","0","uniform","1","1","/","1","NA","NA","2","NA","NA","NA","NA","2","0","41","0","0","0","0","41","41","0","0","41","41","41","41","41","0","0","0","0","0","0","41","41","41","41","41","41","41","41","41","41","0","41","NA","NA","NA","2","0","01/01/16 11:20:48","Default description","no","chinese-japanese-korean","no","18","white","開始實驗B","768","legacy","C:/Users/Evonne/Desktop/test/Compatibility/3_Data Collection/RAW/B-1.csv","xpyriment","Interactive Ising","3.0.2","yes","0","/","NA","space","space","space","/","space","space","/","space","1202","NA","10799","2858","3422","9968","12324","9205","1202","3676","legacy","0","experiment","1","odd","NA","NA","NA","388038","NA","NA","NA","NA","NA","377232","468240","NA","NA","NA","100257","470144","468642","NA","100258","471145","462807","446176","471148","454642","71672","74534","77960","87932","62462","8869","471148","462810","446680","471152","454646","471152","232679","472359","309765","472459","58718","468239","NA","NA","NA","388039","8742","Hommel2002EXP01","10","12285","10","yes","1024"
"y","no","yes","circle","100","100","1213","1213","black","no","xpyriment","legacy","red","blue","green","yellow","legacy","0","uniform","1","1","z","1","NA","NA","2","NA","NA","NA","NA","2","0","42","0","0","0","0","42","42","0","0","42","42","42","42","42","0","0","0","0","0","0","42","42","42","42","42","42","42","42","42","42","0","42","NA","NA","NA","2","0","01/01/16 11:20:48","Default description","no","chinese-japanese-korean","no","18","white","開始實驗B","768","legacy","C:/Users/Evonne/Desktop/test/Compatibility/3_Data Collection/RAW/B-1.csv","xpyriment","Interactive Ising","3.0.2","yes","0","z","NA","space","space","space","/","space","space","z","space","1065","NA","10799","2858","3422","9968","12324","9205","1065","3676","legacy","0","experiment","1","odd","NA","NA","NA","388038","NA","NA","NA","NA","NA","377232","476546","NA","NA","NA","100257","478239","476693","NA","100258","479239","479242","446176","471148","454642","71672","74534","77960","87932","62462","8869","479243","479245","446680","471152","454646","479246","232679","480317","309765","480417","58718","476546","NA","NA","NA","388039","8742","Hommel2002EXP01","11","13350","11","yes","1024"
"n","no","yes","rect","100","100","1200","1200","black","no","xpyriment","legacy","green","red","blue","yellow","legacy","0","uniform","1","1","/","1","NA","NA","2","NA","NA","NA","NA","2","0","43","0","0","0","0","43","43","0","0","43","43","43","43","43","0","0","0","0","0","0","43","43","43","43","43","43","43","43","43","43","0","43","NA","NA","NA","2","0","01/01/16 11:20:48","Default description","no","chinese-japanese-korean","no","18","white","開始實驗B","768","legacy","C:/Users/Evonne/Desktop/test/Compatibility/3_Data Collection/RAW/B-1.csv","xpyriment","Interactive Ising","3.0.2","yes","0","/","NA","space","space","space","/","space","space","/","space","1058","NA","10799","2858","3422","9968","12324","9205","1058","3676","legacy","500","experiment","1","odd","NA","NA","NA","388038","NA","NA","NA","NA","NA","377232","484270","NA","NA","NA","100257","486075","484521","NA","100258","487075","479242","446176","471148","487078","71672","74534","77960","87932","62462","8869","487578","479245","446680","471152","487581","487582","232679","488645","309765","488746","58718","484269","NA","NA","NA","388039","8742","Hommel2002EXP01","12","14408","12","yes","1024"
"y","no","yes","circle","100","100","1190","1190","black","no","xpyriment","legacy","green","red","blue","yellow","legacy","0","uniform","1","1","z","1","NA","NA","2","NA","NA","NA","NA","2","0","44","0","0","0","0","44","44","0","0","44","44","44","44","44","0","0","0","0","0","0","44","44","44","44","44","44","44","44","44","44","0","44","NA","NA","NA","2","0","01/01/16 11:20:48","Default description","no","chinese-japanese-korean","no","18","white","開始實驗B","768","legacy","C:/Users/Evonne/Desktop/test/Compatibility/3_Data Collection/RAW/B-1.csv","xpyriment","Interactive Ising","3.0.2","yes","0","z","NA","space","space","space","/","space","space","z","space","1074","NA","10799","2858","3422","9968","12324","9205","1074","3676","legacy","500","experiment","1","odd","NA","NA","NA","388038","NA","NA","NA","NA","NA","377232","492970","NA","NA","NA","100257","494711","493172","NA","100258","495712","495716","446176","471148","487078","71672","74534","77960","87932","62462","8869","496216","496219","446680","471152","487581","496220","232679","497300","309765","497400","58718","492969","NA","NA","NA","388039","8742","Hommel2002EXP01","13","15482","13","yes","1024"
"n","no","yes","rect","100","100","1189","1189","black","no","xpyriment","legacy","red","blue","yellow","green","legacy","0","uniform","1","1","/","1","NA","NA","2","NA","NA","NA","NA","2","0","45","0","0","0","0","45","45","0","0","45","45","45","45","45","0","0","0","0","0","0","45","45","45","45","45","45","45","45","45","45","0","45","NA","NA","NA","2","0","01/01/16 11:20:48","Default description","no","chinese-japanese-korean","no","18","white","開始實驗B","768","legacy","C:/Users/Evonne/Desktop/test/Compatibility/3_Data Collection/RAW/B-1.csv","xpyriment","Interactive Ising","3.0.2","yes","0","/","NA","space","space","space","/","space","space","/","space","1167","NA","10799","2858","3422","9968","12324","9205","1167","3676","legacy","0","experiment","1","odd","NA","NA","NA","388038","NA","NA","NA","NA","NA","377232","501292","NA","NA","NA","100257","502982","501442","NA","100258","503983","495716","446176","471148","503986","71672","74534","77960","87932","62462","8869","503986","496219","446680","471152","503989","503990","232679","505163","309765","505263","58718","501291","NA","NA","NA","388039","8742","Hommel2002EXP01","14","16649","14","yes","1024"
"y","no","yes","rect","100","100","1202","1202","black","no","xpyriment","legacy","green","yellow","blue","red","legacy","0","uniform","1","1","/","1","NA","NA","2","NA","NA","NA","NA","2","0","46","0","0","0","0","46","46","0","0","46","46","46","46","46","0","0","0","0","0","0","46","46","46","46","46","46","46","46","46","46","0","46","NA","NA","NA","2","0","01/01/16 11:20:48","Default description","no","chinese-japanese-korean","no","18","white","開始實驗B","768","legacy","C:/Users/Evonne/Desktop/test/Compatibility/3_Data Collection/RAW/B-1.csv","xpyriment","Interactive Ising","3.0.2","yes","0","/","NA","space","space","space","/","space","space","/","space","1382","NA","10799","2858","3422","9968","12324","9205","1382","3676","legacy","0","experiment","1","odd","NA","NA","NA","388038","NA","NA","NA","NA","NA","377232","509492","NA","NA","NA","100257","511260","509710","NA","100258","512261","495716","446176","512264","503986","71672","74534","77960","87932","62462","8869","512264","496219","446680","512268","503989","512268","232679","513655","309765","513756","58718","509492","NA","NA","NA","388039","8742","Hommel2002EXP01","15","18031","15","yes","1024"
"y","no","yes","circle","100","100","1183","1183","black","no","xpyriment","legacy","blue","red","green","yellow","legacy","0","uniform","1","1","z","1","NA","NA","2","NA","NA","NA","NA","2","0","47","0","0","0","0","47","47","0","0","47","47","47","47","47","0","0","0","0","0","0","47","47","47","47","47","47","47","47","47","47","0","47","NA","NA","NA","2","0","01/01/16 11:20:48","Default description","no","chinese-japanese-korean","no","18","white","開始實驗B","768","legacy","C:/Users/Evonne/Desktop/test/Compatibility/3_Data Collection/RAW/B-1.csv","xpyriment","Interactive Ising","3.0.2","yes","0","z","NA","space","space","space","/","space","space","z","space","903","NA","10799","2858","3422","9968","12324","9205","903","3676","legacy","500","experiment","1","odd","NA","NA","NA","388038","NA","NA","NA","NA","NA","377232","517807","NA","NA","NA","100257","519605","518057","NA","100258","520606","520609","446176","512264","503986","71672","74534","77960","87932","62462","8869","521109","521112","446680","512268","503989","521113","232679","522022","309765","522123","58718","517807","NA","NA","NA","388039","8742","Hommel2002EXP01","16","18934","16","yes","1024"
"y","no","yes","rect","100","100","1116","1116","black","no","xpyriment","legacy","yellow","red","blue","green","legacy","0","uniform","1","1","/","1","NA","NA","3","NA","NA","NA","NA","3","0","48","0","0","0","0","48","48","0","0","48","48","48","48","48","0","0","0","0","0","0","48","48","48","48","48","48","48","48","48","48","0","48","NA","NA","NA","3","0","01/01/16 11:20:48","Default description","no","chinese-japanese-korean","no","18","white","開始實驗B","768","legacy","C:/Users/Evonne/Desktop/test/Compatibility/3_Data Collection/RAW/B-1.csv","xpyriment","Interactive Ising","3.0.2","yes","0","/","NA","space","space","space","/","space","space","/","space","1116","NA","10799","2858","3422","9968","12324","9205","1116","3676","legacy","0","experiment","1","odd","NA","NA","NA","522169","NA","NA","NA","NA","NA","377232","526071","NA","NA","NA","100257","528010","526508","NA","100258","529011","520609","446176","529014","503986","71672","74534","77960","87932","62462","8869","529015","521112","446680","529019","503989","529019","232679","530139","309765","530240","58718","526071","NA","NA","NA","522170","8742","Hommel2002EXP01","1","1116","1","yes","1024"
"n","no","yes","rect","100","100","1028","1028","black","no","xpyriment","legacy","yellow","green","red","blue","legacy","0","uniform","1","1","/","1","NA","NA","3","NA","NA","NA","NA","3","0","49","0","0","0","0","49","49","0","0","49","49","49","49","49","0","0","0","0","0","0","49","49","49","49","49","49","49","49","49","49","0","49","NA","NA","NA","3","0","01/01/16 11:20:48","Default description","no","chinese-japanese-korean","no","18","white","開始實驗B","768","legacy","C:/Users/Evonne/Desktop/test/Compatibility/3_Data Collection/RAW/B-1.csv","xpyriment","Interactive Ising","3.0.2","yes","0","/","NA","space","space","space","/","space","space","/","space","940","NA","10799","2858","3422","9968","12324","9205","940","3676","legacy","500","experiment","1","odd","NA","NA","NA","522169","NA","NA","NA","NA","NA","377232","533950","NA","NA","NA","100257","535634","534088","NA","100258","536635","520609","446176","529014","536638","71672","74534","77960","87932","62462","8869","537138","521112","446680","529019","537141","537142","232679","538087","309765","538187","58718","533949","NA","NA","NA","522170","8742","Hommel2002EXP01","2","2056","2","yes","1024"
"y","no","yes","circle","100","100","967","967","black","no","xpyriment","legacy","blue","green","yellow","red","legacy","0","uniform","1","1","z","1","NA","NA","3","NA","NA","NA","NA","3","0","50","0","0","0","0","50","50","0","0","50","50","50","50","50","0","0","0","0","0","0","50","50","50","50","50","50","50","50","50","50","0","50","NA","NA","NA","3","0","01/01/16 11:20:48","Default description","no","chinese-japanese-korean","no","18","white","開始實驗B","768","legacy","C:/Users/Evonne/Desktop/test/Compatibility/3_Data Collection/RAW/B-1.csv","xpyriment","Interactive Ising","3.0.2","yes","0","z","NA","space","space","space","/","space","space","z","space","846","NA","10799","2858","3422","9968","12324","9205","846","3676","legacy","500","experiment","1","odd","NA","NA","NA","522169","NA","NA","NA","NA","NA","377232","542406","NA","NA","NA","100257","544148","542599","NA","100258","545148","545152","446176","529014","536638","71672","74534","77960","87932","62462","8869","545652","545655","446680","529019","537141","545656","232679","546507","309765","546607","58718","542405","NA","NA","NA","522170","8742","Hommel2002EXP01","3","2902","3","yes","1024"
"n","no","yes","rect","100","100","1047","1047","black","no","xpyriment","legacy","red","green","yellow","blue","legacy","0","uniform","1","1","/","1","NA","NA","3","NA","NA","NA","NA","3","0","51","0","0","0","0","51","51","0","0","51","51","51","51","51","0","0","0","0","0","0","51","51","51","51","51","51","51","51","51","51","0","51","NA","NA","NA","3","0","01/01/16 11:20:48","Default description","no","chinese-japanese-korean","no","18","white","開始實驗B","768","legacy","C:/Users/Evonne/Desktop/test/Compatibility/3_Data Collection/RAW/B-1.csv","xpyriment","Interactive Ising","3.0.2","yes","0","/","NA","space","space","space","/","space","space","/","space","1287","NA","10799","2858","3422","9968","12324","9205","1287","3676","legacy","500","experiment","1","odd","NA","NA","NA","522169","NA","NA","NA","NA","NA","377232","550663","NA","NA","NA","100257","552351","550801","NA","100258","553352","545152","446176","529014","553355","71672","74534","77960","87932","62462","8869","553855","545655","446680","529019","553858","553859","232679","555151","309765","555252","58718","550662","NA","NA","NA","522170","8742","Hommel2002EXP01","4","4189","4","yes","1024"
"y","no","yes","rect","100","100","1124","1124","black","no","xpyriment","legacy","red","blue","yellow","green","legacy","0","uniform","1","1","/","1","NA","NA","3","NA","NA","NA","NA","3","0","52","0","0","0","0","52","52","0","0","52","52","52","52","52","0","0","0","0","0","0","52","52","52","52","52","52","52","52","52","52","0","52","NA","NA","NA","3","0","01/01/16 11:20:48","Default description","no","chinese-japanese-korean","no","18","white","開始實驗B","768","legacy","C:/Users/Evonne/Desktop/test/Compatibility/3_Data Collection/RAW/B-1.csv","xpyriment","Interactive Ising","3.0.2","yes","0","/","NA","space","space","space","/","space","space","/","space","1432","NA","10799","2858","3422","9968","12324","9205","1432","3676","legacy","500","experiment","1","odd","NA","NA","NA","522169","NA","NA","NA","NA","NA","377232","559451","NA","NA","NA","100257","561189","559650","NA","100258","562189","545152","446176","562192","553355","71672","74534","77960","87932","62462","8869","562692","545655","446680","562695","553858","562695","232679","564133","309765","564233","58718","559451","NA","NA","NA","522170","8742","Hommel2002EXP01","5","5621","5","yes","1024"
"n","no","yes","circle","100","100","1114","1114","black","no","xpyriment","legacy","red","green","blue","yellow","legacy","0","uniform","1","1","z","1","NA","NA","3","NA","NA","NA","NA","3","0","53","0","0","0","0","53","53","0","0","53","53","53","53","53","0","0","0","0","0","0","53","53","53","53","53","53","53","53","53","53","0","53","NA","NA","NA","3","0","01/01/16 11:20:48","Default description","no","chinese-japanese-korean","no","18","white","開始實驗B","768","legacy","C:/Users/Evonne/Desktop/test/Compatibility/3_Data Collection/RAW/B-1.csv","xpyriment","Interactive Ising","3.0.2","yes","0","z","NA","space","space","space","/","space","space","z","space","1065","NA","10799","2858","3422","9968","12324","9205","1065","3676","legacy","0","experiment","1","odd","NA","NA","NA","522169","NA","NA","NA","NA","NA","377232","567985","NA","NA","NA","100257","569812","568263","NA","100258","570812","545152","570815","562192","553355","71672","74534","77960","87932","62462","8869","570815","545655","570818","562695","553858","570819","232679","571890","309765","571990","58718","567984","NA","NA","NA","522170","8742","Hommel2002EXP01","6","6686","6","yes","1024"
"y","no","yes","circle","100","100","1089","1089","black","no","xpyriment","legacy","red","blue","green","yellow","legacy","0","uniform","1","1","z","1","NA","NA","3","NA","NA","NA","NA","3","0","54","0","0","0","0","54","54","0","0","54","54","54","54","54","0","0","0","0","0","0","54","54","54","54","54","54","54","54","54","54","0","54","NA","NA","NA","3","0","01/01/16 11:20:48","Default description","no","chinese-japanese-korean","no","18","white","開始實驗B","768","legacy","C:/Users/Evonne/Desktop/test/Compatibility/3_Data Collection/RAW/B-1.csv","xpyriment","Interactive Ising","3.0.2","yes","0","z","NA","space","space","space","/","space","space","z","space","939","NA","10799","2858","3422","9968","12324","9205","939","3676","legacy","0","experiment","1","odd","NA","NA","NA","522169","NA","NA","NA","NA","NA","377232","576071","NA","NA","NA","100257","577978","576476","NA","100258","578979","578982","570815","562192","553355","71672","74534","77960","87932","62462","8869","578982","578986","570818","562695","553858","578986","232679","579932","309765","580033","58718","576071","NA","NA","NA","522170","8742","Hommel2002EXP01","7","7625","7","yes","1024"
"n","no","yes","circle","87.5","87.5","1203","1203","black","no","xpyriment","legacy","yellow","green","red","blue","legacy","0","uniform","0","0","z","1","NA","NA","3","NA","NA","NA","NA","3","0","55","0","0","0","0","55","55","0","0","55","55","55","55","55","0","0","0","0","0","0","55","55","55","55","55","55","55","55","55","55","0","55","NA","NA","NA","3","0","01/01/16 11:20:48","Default description","no","chinese-japanese-korean","no","18","white","開始實驗B","768","legacy","C:/Users/Evonne/Desktop/test/Compatibility/3_Data Collection/RAW/B-1.csv","xpyriment","Interactive Ising","3.0.2","yes","0","None","NA","space","space","space","/","space","space","None","space","2000","NA","10799","2858","3422","9968","12324","9205","2000","3676","legacy","500","experiment","1","odd","NA","NA","NA","522169","NA","NA","NA","NA","NA","377232","584259","NA","NA","NA","100257","586029","584526","NA","100258","587030","578982","587033","562192","553355","71672","74534","77960","87932","62462","8869","587533","578986","587536","562695","553858","587537","589644","579932","589542","589745","58718","584258","NA","NA","NA","522170","8742","Hommel2002EXP01","7","9625","8","yes","1024"
"y","no","yes","rect","88.8888888889","88.8888888889","1175","1175","black","no","xpyriment","legacy","blue","green","red","yellow","legacy","0","uniform","1","1","/","1","NA","NA","3","NA","NA","NA","NA","3","0","56","0","0","0","0","56","56","0","0","56","56","56","56","56","0","0","0","0","0","0","56","56","56","56","56","56","56","56","56","56","0","56","NA","NA","NA","3","0","01/01/16 11:20:48","Default description","no","chinese-japanese-korean","no","18","white","開始實驗B","768","legacy","C:/Users/Evonne/Desktop/test/Compatibility/3_Data Collection/RAW/B-1.csv","xpyriment","Interactive Ising","3.0.2","yes","0","/","NA","space","space","space","/","space","space","/","space","955","NA","10799","2858","3422","9968","12324","9205","955","3676","legacy","0","experiment","1","odd","NA","NA","NA","522169","NA","NA","NA","NA","NA","377232","593877","NA","NA","NA","100257","595652","594105","NA","100258","596652","578982","587033","596655","553355","71672","74534","77960","87932","62462","8869","596655","578986","587536","596658","553858","596659","589644","597619","589542","597720","58718","593876","NA","NA","NA","522170","8742","Hommel2002EXP01","8","10580","9","yes","1024"
"n","no","yes","rect","90","90","1141","1141","black","no","xpyriment","legacy","green","blue","yellow","red","legacy","0","uniform","1","1","/","1","NA","NA","3","NA","NA","NA","NA","3","0","57","0","0","0","0","57","57","0","0","57","57","57","57","57","0","0","0","0","0","0","57","57","57","57","57","57","57","57","57","57","0","57","NA","NA","NA","3","0","01/01/16 11:20:48","Default description","no","chinese-japanese-korean","no","18","white","開始實驗B","768","legacy","C:/Users/Evonne/Desktop/test/Compatibility/3_Data Collection/RAW/B-1.csv","xpyriment","Interactive Ising","3.0.2","yes","0","/","NA","space","space","space","/","space","space","/","space","838","NA","10799","2858","3422","9968","12324","9205","838","3676","legacy","0","experiment","1","odd","NA","NA","NA","522169","NA","NA","NA","NA","NA","377232","601465","NA","NA","NA","100257","603290","601744","NA","100258","604291","578982","587033","596655","604294","71672","74534","77960","87932","62462","8869","604294","578986","587536","596658","604297","604298","589644","605142","589542","605242","58718","601464","NA","NA","NA","522170","8742","Hommel2002EXP01","9","11418","10","yes","1024"
"n","no","yes","circle","90.9090909091","90.9090909091","1140","1140","black","no","xpyriment","legacy","green","yellow","blue","red","legacy","0","uniform","1","1","z","1","NA","NA","3","NA","NA","NA","NA","3","0","58","0","0","0","0","58","58","0","0","58","58","58","58","58","0","0","0","0","0","0","58","58","58","58","58","58","58","58","58","58","0","58","NA","NA","NA","3","0","01/01/16 11:20:48","Default description","no","chinese-japanese-korean","no","18","white","開始實驗B","768","legacy","C:/Users/Evonne/Desktop/test/Compatibility/3_Data Collection/RAW/B-1.csv","xpyriment","Interactive Ising","3.0.2","yes","0","z","NA","space","space","space","/","space","space","z","space","1131","NA","10799","2858","3422","9968","12324","9205","1131","3676","legacy","500","experiment","1","odd","NA","NA","NA","522169","NA","NA","NA","NA","NA","377232","609267","NA","NA","NA","100257","611056","609510","NA","100258","612057","578982","612060","596655","604294","71672","74534","77960","87932","62462","8869","612560","578986","612563","596658","604297","612564","589644","613702","589542","613802","58718","609267","NA","NA","NA","522170","8742","Hommel2002EXP01","10","12549","11","yes","1024"
"y","no","yes","rect","91.6666666667","91.6666666667","1110","1110","black","no","xpyriment","legacy","green","red","blue","yellow","legacy","0","uniform","1","1","/","1","NA","NA","3","NA","NA","NA","NA","3","0","59","0","0","0","0","59","59","0","0","59","59","59","59","59","0","0","0","0","0","0","59","59","59","59","59","59","59","59","59","59","0","59","NA","NA","NA","3","0","01/01/16 11:20:48","Default description","no","chinese-japanese-korean","no","18","white","開始實驗B","768","legacy","C:/Users/Evonne/Desktop/test/Compatibility/3_Data Collection/RAW/B-1.csv","xpyriment","Interactive Ising","3.0.2","yes","0","/","NA","space","space","space","/","space","space","/","space","772","NA","10799","2858","3422","9968","12324","9205","772","3676","legacy","500","experiment","1","odd","NA","NA","NA","522169","NA","NA","NA","NA","NA","377232","618428","NA","NA","NA","100257","620265","618763","NA","100258","621266","578982","612060","621270","604294","71672","74534","77960","87932","62462","8869","621770","578986","612563","621774","604297","621774","589644","622551","589542","622652","58718","618427","NA","NA","NA","522170","8742","Hommel2002EXP01","11","13321","12","yes","1024"
"y","no","yes","circle","92.3076923077","92.3076923077","1095","1095","black","no","xpyriment","legacy","red","blue","yellow","green","legacy","0","uniform","1","1","z","1","NA","NA","3","NA","NA","NA","NA","3","0","60","0","0","0","0","60","60","0","0","60","60","60","60","60","0","0","0","0","0","0","60","60","60","60","60","60","60","60","60","60","0","60","NA","NA","NA","3","0","01/01/16 11:20:48","Default description","no","chinese-japanese-korean","no","18","white","開始實驗B","768","legacy","C:/Users/Evonne/Desktop/test/Compatibility/3_Data Collection/RAW/B-1.csv","xpyriment","Interactive Ising","3.0.2","yes","0","z","NA","space","space","space","/","space","space","z","space","922","NA","10799","2858","3422","9968","12324","9205","922","3676","legacy","0","experiment","1","odd","NA","NA","NA","522169","NA","NA","NA","NA","NA","377232","627186","NA","NA","NA","100257","628895","627346","NA","100258","629895","629898","612060","621270","604294","71672","74534","77960","87932","62462","8869","629899","629902","612563","621774","604297","629903","589644","630831","589542","630931","58718","627185","NA","NA","NA","522170","8742","Hommel2002EXP01","12","14243","13","yes","1024"
"n","no","yes","rect","92.8571428571","92.8571428571","1074","1074","black","no","xpyriment","legacy","green","blue","red","yellow","legacy","0","uniform","1","1","/","1","NA","NA","3","NA","NA","NA","NA","3","0","61","0","0","0","0","61","61","0","0","61","61","61","61","61","0","0","0","0","0","0","61","61","61","61","61","61","61","61","61","61","0","61","NA","NA","NA","3","0","01/01/16 11:20:48","Default description","no","chinese-japanese-korean","no","18","white","開始實驗B","768","legacy","C:/Users/Evonne/Desktop/test/Compatibility/3_Data Collection/RAW/B-1.csv","xpyriment","Interactive Ising","3.0.2","yes","0","/","NA","space","space","space","/","space","space","/","space","794","NA","10799","2858","3422","9968","12324","9205","794","3676","legacy","0","experiment","1","odd","NA","NA","NA","522169","NA","NA","NA","NA","NA","377232","635234","NA","NA","NA","100257","637084","635535","NA","100258","638085","629898","612060","621270","638088","71672","74534","77960","87932","62462","8869","638088","629902","612563","621774","638092","638093","589644","638892","589542","638993","58718","635234","NA","NA","NA","522170","8742","Hommel2002EXP01","13","15037","14","yes","1024"
"n","no","yes","circle","93.3333333333","93.3333333333","1054","1054","black","no","xpyriment","legacy","blue","red","yellow","green","legacy","0","uniform","1","1","z","1","NA","NA","3","NA","NA","NA","NA","3","0","62","0","0","0","0","62","62","0","0","62","62","62","62","62","0","0","0","0","0","0","62","62","62","62","62","62","62","62","62","62","0","62","NA","NA","NA","3","0","01/01/16 11:20:48","Default description","no","chinese-japanese-korean","no","18","white","開始實驗B","768","legacy","C:/Users/Evonne/Desktop/test/Compatibility/3_Data Collection/RAW/B-1.csv","xpyriment","Interactive Ising","3.0.2","yes","0","z","NA","space","space","space","/","space","space","z","space","776","NA","10799","2858","3422","9968","12324","9205","776","3676","legacy","0","experiment","1","odd","NA","NA","NA","522169","NA","NA","NA","NA","NA","377232","642921","NA","NA","NA","100257","644660","643110","NA","100258","645661","629898","645665","621270","638088","71672","74534","77960","87932","62462","8869","645666","629902","645669","621774","638092","645671","589644","646452","589542","646552","58718","642920","NA","NA","NA","522170","8742","Hommel2002EXP01","14","15813","15","yes","1024"
"y","no","yes","circle","93.75","93.75","1034","1034","black","no","xpyriment","legacy","blue","green","red","yellow","legacy","0","uniform","1","1","z","1","NA","NA","3","NA","NA","NA","NA","3","0","63","0","0","0","0","63","63","0","0","63","63","63","63","63","0","0","0","0","0","0","63","63","63","63","63","63","63","63","63","63","0","63","NA","NA","NA","3","0","01/01/16 11:20:48","Default description","no","chinese-japanese-korean","no","18","white","開始實驗B","768","legacy","C:/Users/Evonne/Desktop/test/Compatibility/3_Data Collection/RAW/B-1.csv","xpyriment","Interactive Ising","3.0.2","yes","0","z","NA","space","space","space","/","space","space","z","space","735","NA","10799","2858","3422","9968","12324","9205","735","3676","legacy","500","experiment","1","odd","NA","NA","NA","522169","NA","NA","NA","NA","NA","377232","650634","NA","NA","NA","100257","652325","650780","NA","100258","653325","653328","645665","621270","638088","71672","74534","77960","87932","62462","8869","653828","653831","645669","621774","638092","653832","589644","654572","589542","654672","58718","650634","NA","NA","NA","522170","8742","Hommel2002EXP01","15","16548","16","yes","1024"
"y","no","yes","circle","100","100","792","792","black","no","xpyriment","legacy","green","blue","red","yellow","legacy","0","uniform","1","1","z","1","NA","0","3","NA","NA","0","NA","3","1","64","0","0","0","0","64","64","0","0","64","64","64","64","64","0","0","0","0","0","0","64","64","64","64","64","64","64","64","64","64","0","64","NA","0","NA","3","0","01/01/16 11:20:48","Default description","no","chinese-japanese-korean","no","18","white","開始實驗B","768","legacy","C:/Users/Evonne/Desktop/test/Compatibility/3_Data Collection/RAW/B-1.csv","xpyriment","Interactive Ising","3.0.2","no","0","z","space","space","space","space","/","space","space","z","space","792","3970","15332","2858","3422","9968","12324","9205","792","3676","legacy","500","experiment","1","odd","670738","NA","674720","522169","NA","NA","NA","NA","NA","655370","678704","NA","674710","NA","100257","680519","678970","NA","100258","681519","681523","645665","621270","638088","71672","74534","77960","87932","62462","8869","682023","682027","645669","621774","638092","682028","589644","682825","589542","682926","58718","678702","NA","674720","NA","522170","8742","Hommel2002EXP01","1","792","1","yes","1024"
"y","no","yes","rect","100","100","845","845","black","no","xpyriment","legacy","yellow","red","blue","green","legacy","0","uniform","1","1","/","1","NA","0","3","NA","NA","0","NA","3","1","65","0","0","0","0","65","65","0","0","65","65","65","65","65","0","0","0","0","0","0","65","65","65","65","65","65","65","65","65","65","0","65","NA","0","NA","3","0","01/01/16 11:20:48","Default description","no","chinese-japanese-korean","no","18","white","開始實驗B","768","legacy","C:/Users/Evonne/Desktop/test/Compatibility/3_Data Collection/RAW/B-1.csv","xpyriment","Interactive Ising","3.0.2","no","0","/","space","space","space","space","/","space","space","/","space","898","3970","15332","2858","3422","9968","12324","9205","898","3676","legacy","0","experiment","1","odd","670738","NA","674720","522169","NA","NA","NA","NA","NA","655370","687260","NA","674710","NA","100257","689185","687682","NA","100258","690186","681523","645665","690189","638088","71672","74534","77960","87932","62462","8869","690189","682027","645669","690193","638092","690193","589644","691096","589542","691196","58718","687259","NA","674720","NA","522170","8742","Hommel2002EXP01","2","1690","2","yes","1024"
"y","no","yes","rect","100","100","806","806","black","no","xpyriment","legacy","yellow","green","blue","red","legacy","0","uniform","1","1","/","1","NA","0","3","NA","NA","0","NA","3","1","66","0","0","0","0","66","66","0","0","66","66","66","66","66","0","0","0","0","0","0","66","66","66","66","66","66","66","66","66","66","0","66","NA","0","NA","3","0","01/01/16 11:20:48","Default description","no","chinese-japanese-korean","no","18","white","開始實驗B","768","legacy","C:/Users/Evonne/Desktop/test/Compatibility/3_Data Collection/RAW/B-1.csv","xpyriment","Interactive Ising","3.0.2","no","0","/","space","space","space","space","/","space","space","/","space","729","3970","15332","2858","3422","9968","12324","9205","729","3676","legacy","500","experiment","1","odd","670738","NA","674720","522169","NA","NA","NA","NA","NA","655370","694960","NA","674710","NA","100257","696641","695093","NA","100258","697641","681523","645665","697645","638088","71672","74534","77960","87932","62462","8869","698145","682027","645669","698149","638092","698149","589644","698885","589542","698985","58718","694959","NA","674720","NA","522170","8742","Hommel2002EXP01","3","2419","3","yes","1024"
"y","no","yes","rect","100","100","809","809","black","no","xpyriment","legacy","green","yellow","red","blue","legacy","0","uniform","1","1","/","1","NA","0","3","NA","NA","0","NA","3","1","67","0","0","0","0","67","67","0","0","67","67","67","67","67","0","0","0","0","0","0","67","67","67","67","67","67","67","67","67","67","0","67","NA","0","NA","3","0","01/01/16 11:20:48","Default description","no","chinese-japanese-korean","no","18","white","開始實驗B","768","legacy","C:/Users/Evonne/Desktop/test/Compatibility/3_Data Collection/RAW/B-1.csv","xpyriment","Interactive Ising","3.0.2","no","0","/","space","space","space","space","/","space","space","/","space","819","3970","15332","2858","3422","9968","12324","9205","819","3676","legacy","250","experiment","1","odd","670738","NA","674720","522169","NA","NA","NA","NA","NA","655370","703004","NA","674710","NA","100257","704788","703239","NA","100258","705789","681523","645665","705792","638088","71672","74534","77960","87932","62462","8869","706042","682027","645669","706045","638092","706045","589644","706869","589542","706969","58718","703004","NA","674720","NA","522170","8742","Hommel2002EXP01","4","3238","4","yes","1024"
"n","no","yes","circle","100","100","854","854","black","no","xpyriment","legacy","green","red","blue","yellow","legacy","0","uniform","1","1","z","1","NA","0","3","NA","NA","0","NA","3","1","68","0","0","0","0","68","68","0","0","68","68","68","68","68","0","0","0","0","0","0","68","68","68","68","68","68","68","68","68","68","0","68","NA","0","NA","3","0","01/01/16 11:20:48","Default description","no","chinese-japanese-korean","no","18","white","開始實驗B","768","legacy","C:/Users/Evonne/Desktop/test/Compatibility/3_Data Collection/RAW/B-1.csv","xpyriment","Interactive Ising","3.0.2","no","0","z","space","space","space","space","/","space","space","z","space","1032","3970","15332","2858","3422","9968","12324","9205","1032","3676","legacy","250","experiment","1","odd","670738","NA","674720","522169","NA","NA","NA","NA","NA","655370","711372","NA","674710","NA","100257","713108","711561","NA","100258","714108","681523","714111","705792","638088","71672","74534","77960","87932","62462","8869","714361","682027","714364","706045","638092","714365","589644","715402","589542","715503","58718","711371","NA","674720","NA","522170","8742","Hommel2002EXP01","5","4270","5","yes","1024"
"y","no","yes","circle","100","100","847","847","black","no","xpyriment","legacy","yellow","red","blue","green","legacy","0","uniform","1","1","z","1","NA","0","3","NA","NA","0","NA","3","1","69","0","0","0","0","69","69","0","0","69","69","69","69","69","0","0","0","0","0","0","69","69","69","69","69","69","69","69","69","69","0","69","NA","0","NA","3","0","01/01/16 11:20:48","Default description","no","chinese-japanese-korean","no","18","white","開始實驗B","768","legacy","C:/Users/Evonne/Desktop/test/Compatibility/3_Data Collection/RAW/B-1.csv","xpyriment","Interactive Ising","3.0.2","no","0","z","space","space","space","space","/","space","space","z","space","813","3970","15332","2858","3422","9968","12324","9205","813","3676","legacy","500","experiment","1","odd","670738","NA","674720","522169","NA","NA","NA","NA","NA","655370","719619","NA","674710","NA","100257","721332","719780","NA","100258","722332","722335","714111","705792","638088","71672","74534","77960","87932","62462","8869","722835","722838","714364","706045","638092","722839","589644","723657","589542","723757","58718","719618","NA","674720","NA","522170","8742","Hommel2002EXP01","6","5083","6","yes","1024"
"y","no","yes","circle","100","100","846","846","black","no","xpyriment","legacy","red","green","blue","yellow","legacy","0","uniform","1","1","z","1","NA","0","3","NA","NA","0","NA","3","1","70","0","0","0","0","70","70","0","0","70","70","70","70","70","0","0","0","0","0","0","70","70","70","70","70","70","70","70","70","70","0","70","NA","0","NA","3","0","01/01/16 11:20:48","Default description","no","chinese-japanese-korean","no","18","white","開始實驗B","768","legacy","C:/Users/Evonne/Desktop/test/Compatibility/3_Data Collection/RAW/B-1.csv","xpyriment","Interactive Ising","3.0.2","no","0","z","space","space","space","space","/","space","space","z","space","842","3970","15332","2858","3422","9968","12324","9205","842","3676","legacy","0","experiment","1","odd","670738","NA","674720","522169","NA","NA","NA","NA","NA","655370","727873","NA","674710","NA","100257","729621","728070","NA","100258","730621","730625","714111","705792","638088","71672","74534","77960","87932","62462","8869","730626","730629","714364","706045","638092","730630","589644","731478","589542","731578","58718","727873","NA","674720","NA","522170","8742","Hommel2002EXP01","7","5925","7","yes","1024"
"y","no","yes","rect","100","100","835","835","black","no","xpyriment","legacy","blue","green","red","yellow","legacy","0","uniform","1","1","/","1","NA","0","3","NA","NA","0","NA","3","1","71","0","0","0","0","71","71","0","0","71","71","71","71","71","0","0","0","0","0","0","71","71","71","71","71","71","71","71","71","71","0","71","NA","0","NA","3","0","01/01/16 11:20:48","Default description","no","chinese-japanese-korean","no","18","white","開始實驗B","768","legacy","C:/Users/Evonne/Desktop/test/Compatibility/3_Data Collection/RAW/B-1.csv","xpyriment","Interactive Ising","3.0.2","no","0","/","space","space","space","space","/","space","space","/","space","758","3970","15332","2858","3422","9968","12324","9205","758","3676","legacy","500","experiment","1","odd","670738","NA","674720","522169","NA","NA","NA","NA","NA","655370","735545","NA","674710","NA","100257","737360","735814","NA","100258","738361","730625","714111","738364","638088","71672","74534","77960","87932","62462","8869","738864","730629","714364","738867","638092","738867","589644","739630","589542","739731","58718","735544","NA","674720","NA","522170","8742","Hommel2002EXP01","8","6683","8","yes","1024"
"y","no","yes","circle","100","100","818","818","black","no","xpyriment","legacy","red","yellow","blue","green","legacy","0","uniform","1","1","z","1","NA","0","3","NA","NA","0","NA","3","1","72","0","0","0","0","72","72","0","0","72","72","72","72","72","0","0","0","0","0","0","72","72","72","72","72","72","72","72","72","72","0","72","NA","0","NA","3","0","01/01/16 11:20:48","Default description","no","chinese-japanese-korean","no","18","white","開始實驗B","768","legacy","C:/Users/Evonne/Desktop/test/Compatibility/3_Data Collection/RAW/B-1.csv","xpyriment","Interactive Ising","3.0.2","no","0","z","space","space","space","space","/","space","space","z","space","683","3970","15332","2858","3422","9968","12324","9205","683","3676","legacy","250","experiment","1","odd","670738","NA","674720","522169","NA","NA","NA","NA","NA","655370","743873","NA","674710","NA","100257","745827","744324","NA","100258","746827","746830","714111","738364","638088","71672","74534","77960","87932","62462","8869","747080","747083","714364","738867","638092","747084","589644","747773","589542","747874","58718","743873","NA","674720","NA","522170","8742","Hommel2002EXP01","9","7366","9","yes","1024"
"y","no","yes","circle","100","100","818","818","black","no","xpyriment","legacy","red","yellow","green","blue","legacy","0","uniform","1","1","z","1","NA","0","3","NA","NA","0","NA","3","1","73","0","0","0","0","73","73","0","0","73","73","73","73","73","0","0","0","0","0","0","73","73","73","73","73","73","73","73","73","73","0","73","NA","0","NA","3","0","01/01/16 11:20:48","Default description","no","chinese-japanese-korean","no","18","white","開始實驗B","768","legacy","C:/Users/Evonne/Desktop/test/Compatibility/3_Data Collection/RAW/B-1.csv","xpyriment","Interactive Ising","3.0.2","no","0","z","space","space","space","space","/","space","space","z","space","815","3970","15332","2858","3422","9968","12324","9205","815","3676","legacy","250","experiment","1","odd","670738","NA","674720","522169","NA","NA","NA","NA","NA","655370","752235","NA","674710","NA","100257","753964","752419","NA","100258","754965","754969","714111","738364","638088","71672","74534","77960","87932","62462","8869","755219","755223","714364","738867","638092","755223","589644","756043","589542","756143","58718","752234","NA","674720","NA","522170","8742","Hommel2002EXP01","10","8181","10","yes","1024"
"n","no","yes","rect","100","100","820","820","black","no","xpyriment","legacy","green","yellow","red","blue","legacy","0","uniform","1","1","/","1","NA","0","3","NA","NA","0","NA","3","1","74","0","0","0","0","74","74","0","0","74","74","74","74","74","0","0","0","0","0","0","74","74","74","74","74","74","74","74","74","74","0","74","NA","0","NA","3","0","01/01/16 11:20:48","Default description","no","chinese-japanese-korean","no","18","white","開始實驗B","768","legacy","C:/Users/Evonne/Desktop/test/Compatibility/3_Data Collection/RAW/B-1.csv","xpyriment","Interactive Ising","3.0.2","no","0","/","space","space","space","space","/","space","space","/","space","849","3970","15332","2858","3422","9968","12324","9205","849","3676","legacy","0","experiment","1","odd","670738","NA","674720","522169","NA","NA","NA","NA","NA","655370","760197","NA","674710","NA","100257","762010","760459","NA","100258","763010","754969","714111","738364","763014","71672","74534","77960","87932","62462","8869","763015","755223","714364","738867","763019","763019","589644","763874","589542","763974","58718","760197","NA","674720","NA","522170","8742","Hommel2002EXP01","11","9030","11","yes","1024"
"y","no","yes","rect","100","100","824","824","black","no","xpyriment","legacy","red","yellow","green","blue","legacy","0","uniform","1","1","/","1","NA","0","3","NA","NA","0","NA","3","1","75","0","0","0","0","75","75","0","0","75","75","75","75","75","0","0","0","0","0","0","75","75","75","75","75","75","75","75","75","75","0","75","NA","0","NA","3","0","01/01/16 11:20:48","Default description","no","chinese-japanese-korean","no","18","white","開始實驗B","768","legacy","C:/Users/Evonne/Desktop/test/Compatibility/3_Data Collection/RAW/B-1.csv","xpyriment","Interactive Ising","3.0.2","no","0","/","space","space","space","space","/","space","space","/","space","861","3970","15332","2858","3422","9968","12324","9205","861","3676","legacy","0","experiment","1","odd","670738","NA","674720","522169","NA","NA","NA","NA","NA","655370","768066","NA","674710","NA","100257","769889","768341","NA","100258","770890","754969","714111","770893","763014","71672","74534","77960","87932","62462","8869","770893","755223","714364","770896","763019","770897","589644","771763","589542","771863","58718","768065","NA","674720","NA","522170","8742","Hommel2002EXP01","12","9891","12","yes","1024"
"n","no","yes","circle","100","100","826","826","black","no","xpyriment","legacy","yellow","blue","green","red","legacy","0","uniform","1","1","z","1","NA","0","3","NA","NA","0","NA","3","1","76","0","0","0","0","76","76","0","0","76","76","76","76","76","0","0","0","0","0","0","76","76","76","76","76","76","76","76","76","76","0","76","NA","0","NA","3","0","01/01/16 11:20:48","Default description","no","chinese-japanese-korean","no","18","white","開始實驗B","768","legacy","C:/Users/Evonne/Desktop/test/Compatibility/3_Data Collection/RAW/B-1.csv","xpyriment","Interactive Ising","3.0.2","no","0","z","space","space","space","space","/","space","space","z","space","847","3970","15332","2858","3422","9968","12324","9205","847","3676","legacy","0","experiment","1","odd","670738","NA","674720","522169","NA","NA","NA","NA","NA","655370","775964","NA","674710","NA","100257","777767","776221","NA","100258","778767","754969","778770","770893","763014","71672","74534","77960","87932","62462","8869","778770","755223","778773","770896","763019","778774","589644","779626","589542","779726","58718","775964","NA","674720","NA","522170","8742","Hommel2002EXP01","13","10738","13","yes","1024"
"n","no","yes","rect","100","100","835","835","black","no","xpyriment","legacy","red","green","yellow","blue","legacy","0","uniform","1","1","/","1","NA","0","3","NA","NA","0","NA","3","1","77","0","0","0","0","77","77","0","0","77","77","77","77","77","0","0","0","0","0","0","77","77","77","77","77","77","77","77","77","77","0","77","NA","0","NA","3","0","01/01/16 11:20:48","Default description","no","chinese-japanese-korean","no","18","white","開始實驗B","768","legacy","C:/Users/Evonne/Desktop/test/Compatibility/3_Data Collection/RAW/B-1.csv","xpyriment","Interactive Ising","3.0.2","no","0","/","space","space","space","space","/","space","space","/","space","955","3970","15332","2858","3422","9968","12324","9205","955","3676","legacy","500","experiment","1","odd","670738","NA","674720","522169","NA","NA","NA","NA","NA","655370","783687","NA","674710","NA","100257","785405","783858","NA","100258","786405","754969","778770","770893","786408","71672","74534","77960","87932","62462","8869","786909","755223","778773","770896","786913","786913","589644","787874","589542","787974","58718","783686","NA","674720","NA","522170","8742","Hommel2002EXP01","14","11693","14","yes","1024"
"n","no","yes","rect","100","100","830","830","black","no","xpyriment","legacy","blue","yellow","red","green","legacy","0","uniform","1","1","/","1","NA","0","3","NA","NA","0","NA","3","1","78","0","0","0","0","78","78","0","0","78","78","78","78","78","0","0","0","0","0","0","78","78","78","78","78","78","78","78","78","78","0","78","NA","0","NA","3","0","01/01/16 11:20:48","Default description","no","chinese-japanese-korean","no","18","white","開始實驗B","768","legacy","C:/Users/Evonne/Desktop/test/Compatibility/3_Data Collection/RAW/B-1.csv","xpyriment","Interactive Ising","3.0.2","no","0","/","space","space","space","space","/","space","space","/","space","767","3970","15332","2858","3422","9968","12324","9205","767","3676","legacy","250","experiment","1","odd","670738","NA","674720","522169","NA","NA","NA","NA","NA","655370","792266","NA","674710","NA","100257","794069","792567","NA","100258","795070","754969","778770","770893","795073","71672","74534","77960","87932","62462","8869","795323","755223","778773","770896","795326","795327","589644","796099","589542","796199","58718","792265","NA","674720","NA","522170","8742","Hommel2002EXP01","15","12460","15","yes","1024"
"n","no","yes","rect","100","100","819","819","black","no","xpyriment","legacy","green","blue","yellow","red","legacy","0","uniform","1","1","/","1","NA","0","3","NA","NA","0","NA","3","1","79","0","0","0","0","79","79","0","0","79","79","79","79","79","0","0","0","0","0","0","79","79","79","79","79","79","79","79","79","79","0","79","NA","0","NA","3","0","01/01/16 11:20:48","Default description","no","chinese-japanese-korean","no","18","white","開始實驗B","768","legacy","C:/Users/Evonne/Desktop/test/Compatibility/3_Data Collection/RAW/B-1.csv","xpyriment","Interactive Ising","3.0.2","no","0","/","space","space","space","space","/","space","space","/","space","644","3970","15332","2858","3422","9968","12324","9205","644","3676","legacy","250","experiment","1","odd","670738","NA","674720","522169","NA","NA","NA","NA","NA","655370","800242","NA","674710","NA","100257","801944","800394","NA","100258","802944","754969","778770","770893","802947","71672","74534","77960","87932","62462","8869","803198","755223","778773","770896","803201","803202","589644","803851","589542","803952","58718","800241","NA","674720","NA","522170","8742","Hommel2002EXP01","16","13104","16","yes","1024"
"n","no","yes","circle","100","100","809","809","black","no","xpyriment","legacy","yellow","green","blue","red","legacy","0","uniform","1","1","z","1","NA","0","3","NA","NA","0","NA","3","1","80","0","0","0","0","80","80","0","0","80","80","80","80","80","0","0","0","0","0","0","80","80","80","80","80","80","80","80","80","80","0","80","NA","0","NA","3","0","01/01/16 11:20:48","Default description","no","chinese-japanese-korean","no","18","white","開始實驗B","768","legacy","C:/Users/Evonne/Desktop/test/Compatibility/3_Data Collection/RAW/B-1.csv","xpyriment","Interactive Ising","3.0.2","no","0","z","space","space","space","space","/","space","space","z","space","653","3970","15332","2858","3422","9968","12324","9205","653","3676","legacy","250","experiment","1","odd","670738","NA","674720","522169","NA","NA","NA","NA","NA","655370","807595","NA","674710","NA","100257","809419","807871","NA","100258","810420","754969","810423","770893","802947","71672","74534","77960","87932","62462","8869","810673","755223","810676","770896","803201","810677","589644","811335","589542","811435","58718","807594","NA","674720","NA","522170","8742","Hommel2002EXP01","17","13757","17","yes","1024"
"n","no","yes","circle","100","100","818","818","black","no","xpyriment","legacy","yellow","green","blue","red","legacy","0","uniform","1","1","z","1","NA","0","3","NA","NA","0","NA","3","1","81","0","0","0","0","81","81","0","0","81","81","81","81","81","0","0","0","0","0","0","81","81","81","81","81","81","81","81","81","81","0","81","NA","0","NA","3","0","01/01/16 11:20:48","Default description","no","chinese-japanese-korean","no","18","white","開始實驗B","768","legacy","C:/Users/Evonne/Desktop/test/Compatibility/3_Data Collection/RAW/B-1.csv","xpyriment","Interactive Ising","3.0.2","no","0","z","space","space","space","space","/","space","space","z","space","980","3970","15332","2858","3422","9968","12324","9205","980","3676","legacy","0","experiment","1","odd","670738","NA","674720","522169","NA","NA","NA","NA","NA","655370","815407","NA","674710","NA","100257","817227","815676","NA","100258","818228","754969","818231","770893","802947","71672","74534","77960","87932","62462","8869","818231","755223","818234","770896","803201","818235","589644","819221","589542","819322","58718","815406","NA","674720","NA","522170","8742","Hommel2002EXP01","18","14737","18","yes","1024"
