"Compatibility","EXPA","EXPB","Shape","acc","accuracy","average_response_time","avg_rt","background","bidi","canvas_backend","clock_backend","color1","color2","color3","color4","color_backend","compensation","coordinates","correct","correct_Target_response","correct_response","count_Block_Break","count_Block_EXPERIMENT_A","count_Block_EXPERIMENT_B","count_Block_Parctice_B","count_Block_Practice_A","count_Block_reset_EXPERIMENT_A","count_Block_reset_EXPERIMENT_B","count_Block_reset_Practice_A","count_Block_reset_Practice_B","count_Break","count_Decide_Color","count_EXPERIMENT_A","count_EXPERIMENT_B","count_EXP_A","count_EXP_B","count_Initial","count_Intertrial","count_Practice_A","count_Practice_B","count_Prepare","count_Prepare_circle_compatible","count_Prepare_circle_incompatible","count_Prepare_rect_compatible","count_Prepare_rect_incompatible","count_Procedure_Ins01","count_Procedure_Ins02","count_Procedure_Ins03","count_Ready","count_Response_Ins","count_Select_Experiment","count_Target","count_Target_circle_compatible","count_Target_circle_incompatible","count_Target_rect_compatible","count_Target_rect_incompatible","count_Target_response","count_Target_response_BadResponse","count_Target_response_Correct","count_Target_response_Wrong","count_Target_response_logger","count_Title","count_Trial","count_Trial_EXPERIMENT_A","count_Trial_EXPERIMENT_B","count_Trial_Practice_A","count_Trial_Practice_B","count_experiment","datetime","description","font_bold","font_family","font_italic","font_size","foreground","form_response","height","keyboard_backend","logfile","mouse_backend","opensesame_codename","opensesame_version","practice","repeat_cycle","response","response_Block_Break","response_Break","response_Procedure_Ins01","response_Procedure_Ins02","response_Procedure_Ins03","response_Ready","response_Response_Ins","response_Target_response","response_Title","response_time","response_time_Block_Break","response_time_Break","response_time_Procedure_Ins01","response_time_Procedure_Ins02","response_time_Procedure_Ins03","response_time_Ready","response_time_Response_Ins","response_time_Target_response","response_time_Title","sampler_backend","soa","start","subject_nr","subject_parity","time_Block_Break","time_Block_EXPERIMENT_A","time_Block_EXPERIMENT_B","time_Block_Parctice_B","time_Block_Practice_A","time_Block_reset_EXPERIMENT_A","time_Block_reset_EXPERIMENT_B","time_Block_reset_Practice_A","time_Block_reset_Practice_B","time_Break","time_Decide_Color","time_EXPERIMENT_A","time_EXPERIMENT_B","time_EXP_A","time_EXP_B","time_Initial","time_Intertrial","time_Practice_A","time_Practice_B","time_Prepare","time_Prepare_circle_compatible","time_Prepare_circle_incompatible","time_Prepare_rect_compatible","time_Prepare_rect_incompatible","time_Procedure_Ins01","time_Procedure_Ins02","time_Procedure_Ins03","time_Ready","time_Response_Ins","time_Select_Experiment","time_Target","time_Target_circle_compatible","time_Target_circle_incompatible","time_Target_rect_compatible","time_Target_rect_incompatible","time_Target_response","time_Target_response_BadResponse","time_Target_response_Correct","time_Target_response_Wrong","time_Target_response_logger","time_Title","time_Trial","time_Trial_EXPERIMENT_A","time_Trial_EXPERIMENT_B","time_Trial_Practice_A","time_Trial_Practice_B","time_experiment","title","total_correct","total_response_time","total_responses","uniform_coordinates","width"
"n","no","yes","circle","100","100","1425","1425","black","no","xpyriment","legacy","red","green","yellow","blue","legacy","0","uniform","1","1","z","1","NA","NA","0","NA","NA","NA","NA","0","NA","0","0","0","0","0","0","0","0","0","0","0","0","0","0","0","0","0","0","0","0","0","0","0","0","0","0","0","0","0","0","0","0","NA","NA","NA","0","0","01/05/16 12:07:35","Default description","no","chinese-japanese-korean","no","18","white","開始實驗B","768","legacy","C:/Users/Evonne/Desktop/test/Compatibility/3_Data Collection/RAW/B-2.csv","xpyriment","Interactive Ising","3.0.2","yes","0","z","NA","NA","space","space","/","space","space","z","space","1425","NA","NA","3410","5441","5182","3954","4320","1425","2737","legacy","500","experiment","1","odd","NA","NA","NA","84624","NA","NA","NA","NA","NA","NA","88454","NA","NA","NA","84614","90221","88668","NA","84614","91221","NA","91225","NA","NA","66606","70022","75469","80658","62266","10096","91725","NA","91729","NA","NA","91729","NA","93160","NA","93260","59469","88453","NA","NA","NA","84625","9646","Hommel2002EXP01","1","1425","1","yes","1024"
"y","no","yes","rect","50","50","1712","1712","black","no","xpyriment","legacy","red","green","yellow","blue","legacy","0","uniform","0","0","/","1","NA","NA","0","NA","NA","NA","NA","0","NA","1","0","0","0","0","1","1","0","0","1","1","1","1","1","0","0","0","0","0","0","1","1","1","1","1","1","1","1","1","1","0","1","NA","NA","NA","0","0","01/05/16 12:07:35","Default description","no","chinese-japanese-korean","no","18","white","開始實驗B","768","legacy","C:/Users/Evonne/Desktop/test/Compatibility/3_Data Collection/RAW/B-2.csv","xpyriment","Interactive Ising","3.0.2","yes","0","None","NA","NA","space","space","/","space","space","None","space","2000","NA","NA","3410","5441","5182","3954","4320","2000","2737","legacy","500","experiment","1","odd","NA","NA","NA","84624","NA","NA","NA","NA","NA","NA","97591","NA","NA","NA","84614","99392","97845","NA","84614","100393","NA","91225","100397","NA","66606","70022","75469","80658","62266","10096","100897","NA","91729","100901","NA","100901","103010","93160","102906","103110","59469","97590","NA","NA","NA","84625","9646","Hommel2002EXP01","1","3425","2","yes","1024"
"y","no","yes","rect","66.6666666667","66.6666666667","1443","1443","black","no","xpyriment","legacy","blue","green","red","yellow","legacy","0","uniform","1","1","/","1","NA","NA","0","NA","NA","NA","NA","0","NA","2","0","0","0","0","2","2","0","0","2","2","2","2","2","0","0","0","0","0","0","2","2","2","2","2","2","2","2","2","2","0","2","NA","NA","NA","0","0","01/05/16 12:07:35","Default description","no","chinese-japanese-korean","no","18","white","開始實驗B","768","legacy","C:/Users/Evonne/Desktop/test/Compatibility/3_Data Collection/RAW/B-2.csv","xpyriment","Interactive Ising","3.0.2","yes","0","/","NA","NA","space","space","/","space","space","/","space","906","NA","NA","3410","5441","5182","3954","4320","906","2737","legacy","500","experiment","1","odd","NA","NA","NA","84624","NA","NA","NA","NA","NA","NA","107204","NA","NA","NA","84614","108931","107385","NA","84614","109932","NA","91225","109936","NA","66606","70022","75469","80658","62266","10096","110436","NA","91729","110442","NA","110443","103010","111355","102906","111455","59469","107203","NA","NA","NA","84625","9646","Hommel2002EXP01","2","4331","3","yes","1024"
"n","no","yes","rect","75","75","1269","1269","black","no","xpyriment","legacy","blue","yellow","red","green","legacy","0","uniform","1","1","/","1","NA","NA","0","NA","NA","NA","NA","0","NA","3","0","0","0","0","3","3","0","0","3","3","3","3","3","0","0","0","0","0","0","3","3","3","3","3","3","3","3","3","3","0","3","NA","NA","NA","0","0","01/05/16 12:07:35","Default description","no","chinese-japanese-korean","no","18","white","開始實驗B","768","legacy","C:/Users/Evonne/Desktop/test/Compatibility/3_Data Collection/RAW/B-2.csv","xpyriment","Interactive Ising","3.0.2","yes","0","/","NA","NA","space","space","/","space","space","/","space","748","NA","NA","3410","5441","5182","3954","4320","748","2737","legacy","500","experiment","1","odd","NA","NA","NA","84624","NA","NA","NA","NA","NA","NA","115554","NA","NA","NA","84614","117301","115798","NA","84614","118301","NA","91225","109936","118305","66606","70022","75469","80658","62266","10096","118805","NA","91729","110442","118809","118809","103010","119563","102906","119663","59469","115553","NA","NA","NA","84625","9646","Hommel2002EXP01","3","5079","4","yes","1024"
"y","no","yes","rect","80","80","1194","1194","black","no","xpyriment","legacy","red","green","blue","yellow","legacy","0","uniform","1","1","/","1","NA","NA","0","NA","NA","NA","NA","0","NA","4","0","0","0","0","4","4","0","0","4","4","4","4","4","0","0","0","0","0","0","4","4","4","4","4","4","4","4","4","4","0","4","NA","NA","NA","0","0","01/05/16 12:07:35","Default description","no","chinese-japanese-korean","no","18","white","開始實驗B","768","legacy","C:/Users/Evonne/Desktop/test/Compatibility/3_Data Collection/RAW/B-2.csv","xpyriment","Interactive Ising","3.0.2","yes","0","/","NA","NA","space","space","/","space","space","/","space","894","NA","NA","3410","5441","5182","3954","4320","894","2737","legacy","0","experiment","1","odd","NA","NA","NA","84624","NA","NA","NA","NA","NA","NA","123915","NA","NA","NA","84614","125598","124052","NA","84614","126599","NA","91225","126603","118305","66606","70022","75469","80658","62266","10096","126603","NA","91729","126607","118809","126607","103010","127508","102906","127609","59469","123915","NA","NA","NA","84625","9646","Hommel2002EXP01","4","5973","5","yes","1024"
"y","no","yes","circle","83.3333333333","83.3333333333","1116","1116","black","no","xpyriment","legacy","green","red","blue","yellow","legacy","0","uniform","1","1","z","1","NA","NA","0","NA","NA","NA","NA","0","NA","5","0","0","0","0","5","5","0","0","5","5","5","5","5","0","0","0","0","0","0","5","5","5","5","5","5","5","5","5","5","0","5","NA","NA","NA","0","0","01/05/16 12:07:35","Default description","no","chinese-japanese-korean","no","18","white","開始實驗B","768","legacy","C:/Users/Evonne/Desktop/test/Compatibility/3_Data Collection/RAW/B-2.csv","xpyriment","Interactive Ising","3.0.2","yes","0","z","NA","NA","space","space","/","space","space","z","space","724","NA","NA","3410","5441","5182","3954","4320","724","2737","legacy","500","experiment","1","odd","NA","NA","NA","84624","NA","NA","NA","NA","NA","NA","131471","NA","NA","NA","84614","133249","131699","NA","84614","134249","134253","91225","126603","118305","66606","70022","75469","80658","62266","10096","134753","134757","91729","126607","118809","134757","103010","135486","102906","135587","59469","131470","NA","NA","NA","84625","9646","Hommel2002EXP01","5","6697","6","yes","1024"
"y","no","yes","circle","85.7142857143","85.7142857143","1094","1094","black","no","xpyriment","legacy","yellow","green","blue","red","legacy","0","uniform","1","1","z","1","NA","NA","0","NA","NA","NA","NA","0","NA","6","0","0","0","0","6","6","0","0","6","6","6","6","6","0","0","0","0","0","0","6","6","6","6","6","6","6","6","6","6","0","6","NA","NA","NA","0","0","01/05/16 12:07:35","Default description","no","chinese-japanese-korean","no","18","white","開始實驗B","768","legacy","C:/Users/Evonne/Desktop/test/Compatibility/3_Data Collection/RAW/B-2.csv","xpyriment","Interactive Ising","3.0.2","yes","0","z","NA","NA","space","space","/","space","space","z","space","965","NA","NA","3410","5441","5182","3954","4320","965","2737","legacy","0","experiment","1","odd","NA","NA","NA","84624","NA","NA","NA","NA","NA","NA","139407","NA","NA","NA","84614","141143","139596","NA","84614","142144","142148","91225","126603","118305","66606","70022","75469","80658","62266","10096","142149","142154","91729","126607","118809","142154","103010","143125","102906","143225","59469","139406","NA","NA","NA","84625","9646","Hommel2002EXP01","6","7662","7","yes","1024"
"n","no","yes","circle","75","75","1063","1063","black","no","xpyriment","legacy","red","blue","yellow","green","legacy","0","uniform","0","0","z","1","NA","NA","0","NA","NA","NA","NA","0","NA","7","0","0","0","0","7","7","0","0","7","7","7","7","7","0","0","0","0","0","0","7","7","7","7","7","7","7","7","7","7","0","7","NA","NA","NA","0","0","01/05/16 12:07:35","Default description","no","chinese-japanese-korean","no","18","white","開始實驗B","768","legacy","C:/Users/Evonne/Desktop/test/Compatibility/3_Data Collection/RAW/B-2.csv","xpyriment","Interactive Ising","3.0.2","yes","0","/","NA","NA","space","space","/","space","space","/","space","844","NA","NA","3410","5441","5182","3954","4320","844","2737","legacy","0","experiment","1","odd","NA","NA","NA","84624","NA","NA","NA","NA","NA","NA","147328","NA","NA","NA","84614","149035","147488","NA","84614","150036","142148","150040","126603","118305","66606","70022","75469","80658","62266","10096","150040","142154","150044","126607","118809","150044","103010","143125","150895","150995","59469","147327","NA","NA","NA","84625","9646","Hommel2002EXP01","6","8506","8","yes","1024"
"n","no","yes","rect","77.7777777778","77.7777777778","1050","1050","black","no","xpyriment","legacy","yellow","green","blue","red","legacy","0","uniform","1","1","/","1","NA","NA","0","NA","NA","NA","NA","0","NA","8","0","0","0","0","8","8","0","0","8","8","8","8","8","0","0","0","0","0","0","8","8","8","8","8","8","8","8","8","8","0","8","NA","NA","NA","0","0","01/05/16 12:07:35","Default description","no","chinese-japanese-korean","no","18","white","開始實驗B","768","legacy","C:/Users/Evonne/Desktop/test/Compatibility/3_Data Collection/RAW/B-2.csv","xpyriment","Interactive Ising","3.0.2","yes","0","/","NA","NA","space","space","/","space","space","/","space","951","NA","NA","3410","5441","5182","3954","4320","951","2737","legacy","500","experiment","1","odd","NA","NA","NA","84624","NA","NA","NA","NA","NA","NA","155286","NA","NA","NA","84614","157083","155542","NA","84614","158084","142148","150040","126603","158088","66606","70022","75469","80658","62266","10096","158588","142154","150044","126607","158592","158592","103010","159550","150895","159650","59469","155286","NA","NA","NA","84625","9646","Hommel2002EXP01","7","9457","9","yes","1024"
"n","no","yes","rect","80","80","1019","1019","black","no","xpyriment","legacy","green","blue","yellow","red","legacy","0","uniform","1","1","/","1","NA","NA","0","NA","NA","NA","NA","0","NA","9","0","0","0","0","9","9","0","0","9","9","9","9","9","0","0","0","0","0","0","9","9","9","9","9","9","9","9","9","9","0","9","NA","NA","NA","0","0","01/05/16 12:07:35","Default description","no","chinese-japanese-korean","no","18","white","開始實驗B","768","legacy","C:/Users/Evonne/Desktop/test/Compatibility/3_Data Collection/RAW/B-2.csv","xpyriment","Interactive Ising","3.0.2","yes","0","/","NA","NA","space","space","/","space","space","/","space","737","NA","NA","3410","5441","5182","3954","4320","737","2737","legacy","0","experiment","1","odd","NA","NA","NA","84624","NA","NA","NA","NA","NA","NA","164044","NA","NA","NA","84614","165969","164466","NA","84614","166969","142148","150040","126603","166973","66606","70022","75469","80658","62266","10096","166973","142154","150044","126607","166977","166978","103010","167720","150895","167820","59469","164044","NA","NA","NA","84625","9646","Hommel2002EXP01","8","10194","10","yes","1024"
"y","no","yes","circle","81.8181818182","81.8181818182","999","999","black","no","xpyriment","legacy","red","yellow","blue","green","legacy","0","uniform","1","1","z","1","NA","NA","0","NA","NA","NA","NA","0","NA","10","0","0","0","0","10","10","0","0","10","10","10","10","10","0","0","0","0","0","0","10","10","10","10","10","10","10","10","10","10","0","10","NA","NA","NA","0","0","01/05/16 12:07:35","Default description","no","chinese-japanese-korean","no","18","white","開始實驗B","768","legacy","C:/Users/Evonne/Desktop/test/Compatibility/3_Data Collection/RAW/B-2.csv","xpyriment","Interactive Ising","3.0.2","yes","0","z","NA","NA","space","space","/","space","space","z","space","802","NA","NA","3410","5441","5182","3954","4320","802","2737","legacy","500","experiment","1","odd","NA","NA","NA","84624","NA","NA","NA","NA","NA","NA","171562","NA","NA","NA","84614","173244","171700","NA","84614","174244","174248","150040","126603","166973","66606","70022","75469","80658","62266","10096","174748","174752","150044","126607","166977","174752","103010","175560","150895","175660","59469","171562","NA","NA","NA","84625","9646","Hommel2002EXP01","9","10996","11","yes","1024"
"n","no","yes","rect","83.3333333333","83.3333333333","980","980","black","no","xpyriment","legacy","blue","green","yellow","red","legacy","0","uniform","1","1","/","1","NA","NA","0","NA","NA","NA","NA","0","NA","11","0","0","0","0","11","11","0","0","11","11","11","11","11","0","0","0","0","0","0","11","11","11","11","11","11","11","11","11","11","0","11","NA","NA","NA","0","0","01/05/16 12:07:35","Default description","no","chinese-japanese-korean","no","18","white","開始實驗B","768","legacy","C:/Users/Evonne/Desktop/test/Compatibility/3_Data Collection/RAW/B-2.csv","xpyriment","Interactive Ising","3.0.2","yes","0","/","NA","NA","space","space","/","space","space","/","space","774","NA","NA","3410","5441","5182","3954","4320","774","2737","legacy","0","experiment","1","odd","NA","NA","NA","84624","NA","NA","NA","NA","NA","NA","179717","NA","NA","NA","84614","181486","179948","NA","84614","182487","174248","150040","126603","182491","66606","70022","75469","80658","62266","10096","182491","174752","150044","126607","182495","182495","103010","183275","150895","183375","59469","179716","NA","NA","NA","84625","9646","Hommel2002EXP01","10","11770","12","yes","1024"
"y","no","yes","circle","84.6153846154","84.6153846154","954","954","black","no","xpyriment","legacy","blue","green","red","yellow","legacy","0","uniform","1","1","z","1","NA","NA","0","NA","NA","NA","NA","0","NA","12","0","0","0","0","12","12","0","0","12","12","12","12","12","0","0","0","0","0","0","12","12","12","12","12","12","12","12","12","12","0","12","NA","NA","NA","0","0","01/05/16 12:07:35","Default description","no","chinese-japanese-korean","no","18","white","開始實驗B","768","legacy","C:/Users/Evonne/Desktop/test/Compatibility/3_Data Collection/RAW/B-2.csv","xpyriment","Interactive Ising","3.0.2","yes","0","z","NA","NA","space","space","/","space","space","z","space","633","NA","NA","3410","5441","5182","3954","4320","633","2737","legacy","0","experiment","1","odd","NA","NA","NA","84624","NA","NA","NA","NA","NA","NA","187299","NA","NA","NA","84614","189004","187460","NA","84614","190004","190008","150040","126603","182491","66606","70022","75469","80658","62266","10096","190008","190012","150044","126607","182495","190012","103010","190651","150895","190751","59469","187299","NA","NA","NA","84625","9646","Hommel2002EXP01","11","12403","13","yes","1024"
"n","no","yes","circle","85.7142857143","85.7142857143","941","941","black","no","xpyriment","legacy","red","blue","yellow","green","legacy","0","uniform","1","1","z","1","NA","NA","0","NA","NA","NA","NA","0","NA","13","0","0","0","0","13","13","0","0","13","13","13","13","13","0","0","0","0","0","0","13","13","13","13","13","13","13","13","13","13","0","13","NA","NA","NA","0","0","01/05/16 12:07:35","Default description","no","chinese-japanese-korean","no","18","white","開始實驗B","768","legacy","C:/Users/Evonne/Desktop/test/Compatibility/3_Data Collection/RAW/B-2.csv","xpyriment","Interactive Ising","3.0.2","yes","0","z","NA","NA","space","space","/","space","space","z","space","781","NA","NA","3410","5441","5182","3954","4320","781","2737","legacy","500","experiment","1","odd","NA","NA","NA","84624","NA","NA","NA","NA","NA","NA","194783","NA","NA","NA","84614","196497","194949","NA","84614","197497","190008","197501","126603","182491","66606","70022","75469","80658","62266","10096","198001","190012","198005","126607","182495","198005","103010","198791","150895","198891","59469","194783","NA","NA","NA","84625","9646","Hommel2002EXP01","12","13184","14","yes","1024"
"y","no","yes","rect","86.6666666667","86.6666666667","938","938","black","no","xpyriment","legacy","blue","yellow","green","red","legacy","0","uniform","1","1","/","1","NA","NA","0","NA","NA","NA","NA","0","NA","14","0","0","0","0","14","14","0","0","14","14","14","14","14","0","0","0","0","0","0","14","14","14","14","14","14","14","14","14","14","0","14","NA","NA","NA","0","0","01/05/16 12:07:35","Default description","no","chinese-japanese-korean","no","18","white","開始實驗B","768","legacy","C:/Users/Evonne/Desktop/test/Compatibility/3_Data Collection/RAW/B-2.csv","xpyriment","Interactive Ising","3.0.2","yes","0","/","NA","NA","space","space","/","space","space","/","space","890","NA","NA","3410","5441","5182","3954","4320","890","2737","legacy","0","experiment","1","odd","NA","NA","NA","84624","NA","NA","NA","NA","NA","NA","202833","NA","NA","NA","84614","204595","203048","NA","84614","205596","190008","197501","205601","182491","66606","70022","75469","80658","62266","10096","205601","190012","198005","205606","182495","205607","103010","206502","150895","206602","59469","202833","NA","NA","NA","84625","9646","Hommel2002EXP01","13","14074","15","yes","1024"
"n","no","yes","circle","87.5","87.5","931","931","black","no","xpyriment","legacy","blue","yellow","red","green","legacy","0","uniform","1","1","z","1","NA","NA","0","NA","NA","NA","NA","0","NA","15","0","0","0","0","15","15","0","0","15","15","15","15","15","0","0","0","0","0","0","15","15","15","15","15","15","15","15","15","15","0","15","NA","NA","NA","0","0","01/05/16 12:07:35","Default description","no","chinese-japanese-korean","no","18","white","開始實驗B","768","legacy","C:/Users/Evonne/Desktop/test/Compatibility/3_Data Collection/RAW/B-2.csv","xpyriment","Interactive Ising","3.0.2","yes","0","z","NA","NA","space","space","/","space","space","z","space","834","NA","NA","3410","5441","5182","3954","4320","834","2737","legacy","0","experiment","1","odd","NA","NA","NA","84624","NA","NA","NA","NA","NA","NA","210595","NA","NA","NA","84614","212402","210862","NA","84614","213402","190008","213406","205601","182491","66606","70022","75469","80658","62266","10096","213407","190012","213411","205606","182495","213411","103010","214250","150895","214351","59469","210595","NA","NA","NA","84625","9646","Hommel2002EXP01","14","14908","16","yes","1024"
"n","no","yes","circle","100","100","740","740","black","no","xpyriment","legacy","yellow","blue","red","green","legacy","0","uniform","1","1","z","1","NA","NA","1","NA","NA","NA","NA","1","NA","16","0","0","0","0","16","16","0","0","16","16","16","16","16","0","0","0","0","0","0","16","16","16","16","16","16","16","16","16","16","0","16","NA","NA","NA","1","0","01/05/16 12:07:35","Default description","no","chinese-japanese-korean","no","18","white","開始實驗B","768","legacy","C:/Users/Evonne/Desktop/test/Compatibility/3_Data Collection/RAW/B-2.csv","xpyriment","Interactive Ising","3.0.2","yes","0","z","NA","NA","space","space","/","space","space","z","space","740","NA","NA","3410","5441","5182","3954","4320","740","2737","legacy","500","experiment","1","odd","NA","NA","NA","214429","NA","NA","NA","NA","NA","NA","218542","NA","NA","NA","84614","220479","218975","NA","84614","221479","190008","221482","205601","182491","66606","70022","75469","80658","62266","10096","221983","190012","221987","205606","182495","221988","103010","222734","150895","222834","59469","218542","NA","NA","NA","214430","9646","Hommel2002EXP01","1","740","1","yes","1024"
"n","no","yes","rect","100","100","805","805","black","no","xpyriment","legacy","yellow","green","red","blue","legacy","0","uniform","1","1","/","1","NA","NA","1","NA","NA","NA","NA","1","NA","17","0","0","0","0","17","17","0","0","17","17","17","17","17","0","0","0","0","0","0","17","17","17","17","17","17","17","17","17","17","0","17","NA","NA","NA","1","0","01/05/16 12:07:35","Default description","no","chinese-japanese-korean","no","18","white","開始實驗B","768","legacy","C:/Users/Evonne/Desktop/test/Compatibility/3_Data Collection/RAW/B-2.csv","xpyriment","Interactive Ising","3.0.2","yes","0","/","NA","NA","space","space","/","space","space","/","space","870","NA","NA","3410","5441","5182","3954","4320","870","2737","legacy","500","experiment","1","odd","NA","NA","NA","214429","NA","NA","NA","NA","NA","NA","226701","NA","NA","NA","84614","228383","226842","NA","84614","229384","190008","221482","205601","229388","66606","70022","75469","80658","62266","10096","229888","190012","221987","205606","229892","229892","103010","230768","150895","230869","59469","226701","NA","NA","NA","214430","9646","Hommel2002EXP01","2","1610","2","yes","1024"
"y","no","yes","rect","100","100","804","804","black","no","xpyriment","legacy","blue","green","red","yellow","legacy","0","uniform","1","1","/","1","NA","NA","1","NA","NA","NA","NA","1","NA","18","0","0","0","0","18","18","0","0","18","18","18","18","18","0","0","0","0","0","0","18","18","18","18","18","18","18","18","18","18","0","18","NA","NA","NA","1","0","01/05/16 12:07:35","Default description","no","chinese-japanese-korean","no","18","white","開始實驗B","768","legacy","C:/Users/Evonne/Desktop/test/Compatibility/3_Data Collection/RAW/B-2.csv","xpyriment","Interactive Ising","3.0.2","yes","0","/","NA","NA","space","space","/","space","space","/","space","803","NA","NA","3410","5441","5182","3954","4320","803","2737","legacy","500","experiment","1","odd","NA","NA","NA","214429","NA","NA","NA","NA","NA","NA","234951","NA","NA","NA","84614","236652","235108","NA","84614","237653","190008","221482","237657","229388","66606","70022","75469","80658","62266","10096","238157","190012","221987","238161","229892","238161","103010","238971","150895","239071","59469","234951","NA","NA","NA","214430","9646","Hommel2002EXP01","3","2413","3","yes","1024"
"n","no","yes","rect","100","100","762","762","black","no","xpyriment","legacy","yellow","red","green","blue","legacy","0","uniform","1","1","/","1","NA","NA","1","NA","NA","NA","NA","1","NA","19","0","0","0","0","19","19","0","0","19","19","19","19","19","0","0","0","0","0","0","19","19","19","19","19","19","19","19","19","19","0","19","NA","NA","NA","1","0","01/05/16 12:07:35","Default description","no","chinese-japanese-korean","no","18","white","開始實驗B","768","legacy","C:/Users/Evonne/Desktop/test/Compatibility/3_Data Collection/RAW/B-2.csv","xpyriment","Interactive Ising","3.0.2","yes","0","/","NA","NA","space","space","/","space","space","/","space","638","NA","NA","3410","5441","5182","3954","4320","638","2737","legacy","500","experiment","1","odd","NA","NA","NA","214429","NA","NA","NA","NA","NA","NA","243149","NA","NA","NA","84614","244876","243330","NA","84614","245876","190008","221482","237657","245880","66606","70022","75469","80658","62266","10096","246380","190012","221987","238161","246384","246385","103010","247029","150895","247129","59469","243149","NA","NA","NA","214430","9646","Hommel2002EXP01","4","3051","4","yes","1024"
"y","no","yes","rect","100","100","840","840","black","no","xpyriment","legacy","yellow","green","red","blue","legacy","0","uniform","1","1","/","1","NA","NA","1","NA","NA","NA","NA","1","NA","20","0","0","0","0","20","20","0","0","20","20","20","20","20","0","0","0","0","0","0","20","20","20","20","20","20","20","20","20","20","0","20","NA","NA","NA","1","0","01/05/16 12:07:35","Default description","no","chinese-japanese-korean","no","18","white","開始實驗B","768","legacy","C:/Users/Evonne/Desktop/test/Compatibility/3_Data Collection/RAW/B-2.csv","xpyriment","Interactive Ising","3.0.2","yes","0","/","NA","NA","space","space","/","space","space","/","space","1149","NA","NA","3410","5441","5182","3954","4320","1149","2737","legacy","500","experiment","1","odd","NA","NA","NA","214429","NA","NA","NA","NA","NA","NA","251229","NA","NA","NA","84614","253033","251487","NA","84614","254033","190008","221482","254038","245880","66606","70022","75469","80658","62266","10096","254538","190012","221987","254542","246384","254542","103010","255697","150895","255797","59469","251229","NA","NA","NA","214430","9646","Hommel2002EXP01","5","4200","5","yes","1024"
"n","no","yes","circle","100","100","835","835","black","no","xpyriment","legacy","yellow","blue","red","green","legacy","0","uniform","1","1","z","1","NA","NA","1","NA","NA","NA","NA","1","NA","21","0","0","0","0","21","21","0","0","21","21","21","21","21","0","0","0","0","0","0","21","21","21","21","21","21","21","21","21","21","0","21","NA","NA","NA","1","0","01/05/16 12:07:35","Default description","no","chinese-japanese-korean","no","18","white","開始實驗B","768","legacy","C:/Users/Evonne/Desktop/test/Compatibility/3_Data Collection/RAW/B-2.csv","xpyriment","Interactive Ising","3.0.2","yes","0","z","NA","NA","space","space","/","space","space","z","space","812","NA","NA","3410","5441","5182","3954","4320","812","2737","legacy","0","experiment","1","odd","NA","NA","NA","214429","NA","NA","NA","NA","NA","NA","259853","NA","NA","NA","84614","261678","260131","NA","84614","262679","190008","262682","254038","245880","66606","70022","75469","80658","62266","10096","262683","190012","262687","254542","246384","262688","103010","263506","150895","263606","59469","259853","NA","NA","NA","214430","9646","Hommel2002EXP01","6","5012","6","yes","1024"
"y","no","yes","circle","100","100","810","810","black","no","xpyriment","legacy","red","blue","green","yellow","legacy","0","uniform","1","1","z","1","NA","NA","1","NA","NA","NA","NA","1","NA","22","0","0","0","0","22","22","0","0","22","22","22","22","22","0","0","0","0","0","0","22","22","22","22","22","22","22","22","22","22","0","22","NA","NA","NA","1","0","01/05/16 12:07:35","Default description","no","chinese-japanese-korean","no","18","white","開始實驗B","768","legacy","C:/Users/Evonne/Desktop/test/Compatibility/3_Data Collection/RAW/B-2.csv","xpyriment","Interactive Ising","3.0.2","yes","0","z","NA","NA","space","space","/","space","space","z","space","664","NA","NA","3410","5441","5182","3954","4320","664","2737","legacy","0","experiment","1","odd","NA","NA","NA","214429","NA","NA","NA","NA","NA","NA","267639","NA","NA","NA","84614","269655","268152","NA","84614","270655","270659","262682","254038","245880","66606","70022","75469","80658","62266","10096","270659","270663","262687","254542","246384","270663","103010","271333","150895","271433","59469","267639","NA","NA","NA","214430","9646","Hommel2002EXP01","7","5676","7","yes","1024"
"n","no","yes","rect","100","100","797","797","black","no","xpyriment","legacy","yellow","green","red","blue","legacy","0","uniform","1","1","/","1","NA","NA","1","NA","NA","NA","NA","1","NA","23","0","0","0","0","23","23","0","0","23","23","23","23","23","0","0","0","0","0","0","23","23","23","23","23","23","23","23","23","23","0","23","NA","NA","NA","1","0","01/05/16 12:07:35","Default description","no","chinese-japanese-korean","no","18","white","開始實驗B","768","legacy","C:/Users/Evonne/Desktop/test/Compatibility/3_Data Collection/RAW/B-2.csv","xpyriment","Interactive Ising","3.0.2","yes","0","/","NA","NA","space","space","/","space","space","/","space","701","NA","NA","3410","5441","5182","3954","4320","701","2737","legacy","0","experiment","1","odd","NA","NA","NA","214429","NA","NA","NA","NA","NA","NA","275125","NA","NA","NA","84614","276800","275256","NA","84614","277801","270659","262682","254038","277805","66606","70022","75469","80658","62266","10096","277805","270663","262687","254542","277809","277809","103010","278517","150895","278617","59469","275125","NA","NA","NA","214430","9646","Hommel2002EXP01","8","6377","8","yes","1024"
"y","no","yes","rect","88.8888888889","88.8888888889","788","788","black","no","xpyriment","legacy","red","green","yellow","blue","legacy","0","uniform","0","0","/","1","NA","NA","1","NA","NA","NA","NA","1","NA","24","0","0","0","0","24","24","0","0","24","24","24","24","24","0","0","0","0","0","0","24","24","24","24","24","24","24","24","24","24","0","24","NA","NA","NA","1","0","01/05/16 12:07:35","Default description","no","chinese-japanese-korean","no","18","white","開始實驗B","768","legacy","C:/Users/Evonne/Desktop/test/Compatibility/3_Data Collection/RAW/B-2.csv","xpyriment","Interactive Ising","3.0.2","yes","0","z","NA","NA","space","space","/","space","space","z","space","723","NA","NA","3410","5441","5182","3954","4320","723","2737","legacy","0","experiment","1","odd","NA","NA","NA","214429","NA","NA","NA","NA","NA","NA","282635","NA","NA","NA","84614","284388","282841","NA","84614","285389","270659","262682","285393","277805","66606","70022","75469","80658","62266","10096","285393","270663","262687","285397","277809","285398","103010","278517","286127","286227","59469","282634","NA","NA","NA","214430","9646","Hommel2002EXP01","8","7100","9","yes","1024"
"y","no","yes","circle","90","90","789","789","black","no","xpyriment","legacy","green","red","blue","yellow","legacy","0","uniform","1","1","z","1","NA","NA","1","NA","NA","NA","NA","1","NA","25","0","0","0","0","25","25","0","0","25","25","25","25","25","0","0","0","0","0","0","25","25","25","25","25","25","25","25","25","25","0","25","NA","NA","NA","1","0","01/05/16 12:07:35","Default description","no","chinese-japanese-korean","no","18","white","開始實驗B","768","legacy","C:/Users/Evonne/Desktop/test/Compatibility/3_Data Collection/RAW/B-2.csv","xpyriment","Interactive Ising","3.0.2","yes","0","z","NA","NA","space","space","/","space","space","z","space","791","NA","NA","3410","5441","5182","3954","4320","791","2737","legacy","500","experiment","1","odd","NA","NA","NA","214429","NA","NA","NA","NA","NA","NA","290391","NA","NA","NA","84614","292080","290534","NA","84614","293081","293085","262682","285393","277805","66606","70022","75469","80658","62266","10096","293585","293589","262687","285397","277809","293590","103010","294387","286127","294488","59469","290391","NA","NA","NA","214430","9646","Hommel2002EXP01","9","7891","10","yes","1024"
"y","no","yes","rect","90.9090909091","90.9090909091","788","788","black","no","xpyriment","legacy","red","blue","green","yellow","legacy","0","uniform","1","1","/","1","NA","NA","1","NA","NA","NA","NA","1","NA","26","0","0","0","0","26","26","0","0","26","26","26","26","26","0","0","0","0","0","0","26","26","26","26","26","26","26","26","26","26","0","26","NA","NA","NA","1","0","01/05/16 12:07:35","Default description","no","chinese-japanese-korean","no","18","white","開始實驗B","768","legacy","C:/Users/Evonne/Desktop/test/Compatibility/3_Data Collection/RAW/B-2.csv","xpyriment","Interactive Ising","3.0.2","yes","0","/","NA","NA","space","space","/","space","space","/","space","785","NA","NA","3410","5441","5182","3954","4320","785","2737","legacy","0","experiment","1","odd","NA","NA","NA","214429","NA","NA","NA","NA","NA","NA","298703","NA","NA","NA","84614","300449","298892","NA","84614","301449","293085","262682","301453","277805","66606","70022","75469","80658","62266","10096","301453","293589","262687","301457","277809","301457","103010","302248","286127","302348","59469","298702","NA","NA","NA","214430","9646","Hommel2002EXP01","10","8676","11","yes","1024"
"n","no","yes","circle","91.6666666667","91.6666666667","799","799","black","no","xpyriment","legacy","blue","red","yellow","green","legacy","0","uniform","1","1","z","1","NA","NA","1","NA","NA","NA","NA","1","NA","27","0","0","0","0","27","27","0","0","27","27","27","27","27","0","0","0","0","0","0","27","27","27","27","27","27","27","27","27","27","0","27","NA","NA","NA","1","0","01/05/16 12:07:35","Default description","no","chinese-japanese-korean","no","18","white","開始實驗B","768","legacy","C:/Users/Evonne/Desktop/test/Compatibility/3_Data Collection/RAW/B-2.csv","xpyriment","Interactive Ising","3.0.2","yes","0","z","NA","NA","space","space","/","space","space","z","space","912","NA","NA","3410","5441","5182","3954","4320","912","2737","legacy","0","experiment","1","odd","NA","NA","NA","214429","NA","NA","NA","NA","NA","NA","306468","NA","NA","NA","84614","308319","306771","NA","84614","309320","293085","309324","301453","277805","66606","70022","75469","80658","62266","10096","309325","293589","309329","301457","277809","309330","103010","310249","286127","310349","59469","306468","NA","NA","NA","214430","9646","Hommel2002EXP01","11","9588","12","yes","1024"
"y","no","yes","circle","92.3076923077","92.3076923077","807","807","black","no","xpyriment","legacy","green","blue","yellow","red","legacy","0","uniform","1","1","z","1","NA","NA","1","NA","NA","NA","NA","1","NA","28","0","0","0","0","28","28","0","0","28","28","28","28","28","0","0","0","0","0","0","28","28","28","28","28","28","28","28","28","28","0","28","NA","NA","NA","1","0","01/05/16 12:07:35","Default description","no","chinese-japanese-korean","no","18","white","開始實驗B","768","legacy","C:/Users/Evonne/Desktop/test/Compatibility/3_Data Collection/RAW/B-2.csv","xpyriment","Interactive Ising","3.0.2","yes","0","z","NA","NA","space","space","/","space","space","z","space","906","NA","NA","3410","5441","5182","3954","4320","906","2737","legacy","500","experiment","1","odd","NA","NA","NA","214429","NA","NA","NA","NA","NA","NA","314320","NA","NA","NA","84614","316171","314622","NA","84614","317171","317175","309324","301453","277805","66606","70022","75469","80658","62266","10096","317675","317679","309329","301457","277809","317679","103010","318591","286127","318691","59469","314320","NA","NA","NA","214430","9646","Hommel2002EXP01","12","10494","13","yes","1024"
"n","no","yes","rect","92.8571428571","92.8571428571","797","797","black","no","xpyriment","legacy","blue","green","yellow","red","legacy","0","uniform","1","1","/","1","NA","NA","1","NA","NA","NA","NA","1","NA","29","0","0","0","0","29","29","0","0","29","29","29","29","29","0","0","0","0","0","0","29","29","29","29","29","29","29","29","29","29","0","29","NA","NA","NA","1","0","01/05/16 12:07:35","Default description","no","chinese-japanese-korean","no","18","white","開始實驗B","768","legacy","C:/Users/Evonne/Desktop/test/Compatibility/3_Data Collection/RAW/B-2.csv","xpyriment","Interactive Ising","3.0.2","yes","0","/","NA","NA","space","space","/","space","space","/","space","673","NA","NA","3410","5441","5182","3954","4320","673","2737","legacy","0","experiment","1","odd","NA","NA","NA","214429","NA","NA","NA","NA","NA","NA","323031","NA","NA","NA","84614","324991","323488","NA","84614","325991","317175","309324","301453","325995","66606","70022","75469","80658","62266","10096","325995","317679","309329","301457","325999","325999","103010","326677","286127","326778","59469","323031","NA","NA","NA","214430","9646","Hommel2002EXP01","13","11167","14","yes","1024"
"y","no","yes","circle","93.3333333333","93.3333333333","793","793","black","no","xpyriment","legacy","red","yellow","green","blue","legacy","0","uniform","1","1","z","1","NA","NA","1","NA","NA","NA","NA","1","NA","30","0","0","0","0","30","30","0","0","30","30","30","30","30","0","0","0","0","0","0","30","30","30","30","30","30","30","30","30","30","0","30","NA","NA","NA","1","0","01/05/16 12:07:35","Default description","no","chinese-japanese-korean","no","18","white","開始實驗B","768","legacy","C:/Users/Evonne/Desktop/test/Compatibility/3_Data Collection/RAW/B-2.csv","xpyriment","Interactive Ising","3.0.2","yes","0","z","NA","NA","space","space","/","space","space","z","space","733","NA","NA","3410","5441","5182","3954","4320","733","2737","legacy","0","experiment","1","odd","NA","NA","NA","214429","NA","NA","NA","NA","NA","NA","330488","NA","NA","NA","84614","332194","330639","NA","84614","333194","333199","309324","301453","325995","66606","70022","75469","80658","62266","10096","333200","333204","309329","301457","325999","333204","103010","333943","286127","334043","59469","330487","NA","NA","NA","214430","9646","Hommel2002EXP01","14","11900","15","yes","1024"
"n","no","yes","circle","87.5","87.5","794","794","black","no","xpyriment","legacy","blue","yellow","green","red","legacy","0","uniform","0","0","z","1","NA","NA","1","NA","NA","NA","NA","1","NA","31","0","0","0","0","31","31","0","0","31","31","31","31","31","0","0","0","0","0","0","31","31","31","31","31","31","31","31","31","31","0","31","NA","NA","NA","1","0","01/05/16 12:07:35","Default description","no","chinese-japanese-korean","no","18","white","開始實驗B","768","legacy","C:/Users/Evonne/Desktop/test/Compatibility/3_Data Collection/RAW/B-2.csv","xpyriment","Interactive Ising","3.0.2","yes","0","/","NA","NA","space","space","/","space","space","/","space","813","NA","NA","3410","5441","5182","3954","4320","813","2737","legacy","500","experiment","1","odd","NA","NA","NA","214429","NA","NA","NA","NA","NA","NA","338230","NA","NA","NA","84614","339922","338367","NA","84614","340923","333199","340927","301453","325995","66606","70022","75469","80658","62266","10096","341427","333204","341431","301457","325999","341431","103010","333943","342249","342349","59469","338229","NA","NA","NA","214430","9646","Hommel2002EXP01","14","12713","16","yes","1024"
"n","no","yes","circle","100","100","1420","1420","black","no","xpyriment","legacy","yellow","red","green","blue","legacy","0","uniform","1","1","z","1","NA","NA","2","NA","NA","NA","NA","2","0","32","0","0","0","0","32","32","0","0","32","32","32","32","32","0","0","0","0","0","0","32","32","32","32","32","32","32","32","32","32","0","32","NA","NA","NA","2","0","01/05/16 12:07:35","Default description","no","chinese-japanese-korean","no","18","white","開始實驗B","768","legacy","C:/Users/Evonne/Desktop/test/Compatibility/3_Data Collection/RAW/B-2.csv","xpyriment","Interactive Ising","3.0.2","yes","0","z","NA","space","space","space","/","space","space","z","space","1420","NA","36024","3410","5441","5182","3954","4320","1420","2737","legacy","0","experiment","1","odd","NA","NA","NA","379077","NA","NA","NA","NA","NA","343044","383210","NA","NA","NA","84614","384911","383363","NA","84614","385911","333199","385915","301453","325995","66606","70022","75469","80658","62266","10096","385915","333204","385919","301457","325999","385920","103010","387346","342249","387446","59469","383209","NA","NA","NA","379077","9646","Hommel2002EXP01","1","1420","1","yes","1024"
"y","no","yes","circle","100","100","1168","1168","black","no","xpyriment","legacy","yellow","blue","green","red","legacy","0","uniform","1","1","z","1","NA","NA","2","NA","NA","NA","NA","2","0","33","0","0","0","0","33","33","0","0","33","33","33","33","33","0","0","0","0","0","0","33","33","33","33","33","33","33","33","33","33","0","33","NA","NA","NA","2","0","01/05/16 12:07:35","Default description","no","chinese-japanese-korean","no","18","white","開始實驗B","768","legacy","C:/Users/Evonne/Desktop/test/Compatibility/3_Data Collection/RAW/B-2.csv","xpyriment","Interactive Ising","3.0.2","yes","0","z","NA","space","space","space","/","space","space","z","space","916","NA","36024","3410","5441","5182","3954","4320","916","2737","legacy","0","experiment","1","odd","NA","NA","NA","379077","NA","NA","NA","NA","NA","343044","391672","NA","NA","NA","84614","393432","391872","NA","84614","394433","394437","385915","301453","325995","66606","70022","75469","80658","62266","10096","394438","394441","385919","301457","325999","394442","103010","395363","342249","395464","59469","391671","NA","NA","NA","379077","9646","Hommel2002EXP01","2","2336","2","yes","1024"
"n","no","yes","circle","100","100","1270","1270","black","no","xpyriment","legacy","red","green","yellow","blue","legacy","0","uniform","1","1","z","1","NA","NA","2","NA","NA","NA","NA","2","0","34","0","0","0","0","34","34","0","0","34","34","34","34","34","0","0","0","0","0","0","34","34","34","34","34","34","34","34","34","34","0","34","NA","NA","NA","2","0","01/05/16 12:07:35","Default description","no","chinese-japanese-korean","no","18","white","開始實驗B","768","legacy","C:/Users/Evonne/Desktop/test/Compatibility/3_Data Collection/RAW/B-2.csv","xpyriment","Interactive Ising","3.0.2","yes","0","z","NA","space","space","space","/","space","space","z","space","1474","NA","36024","3410","5441","5182","3954","4320","1474","2737","legacy","0","experiment","1","odd","NA","NA","NA","379077","NA","NA","NA","NA","NA","343044","399514","NA","NA","NA","84614","401278","399734","NA","84614","402279","394437","402284","301453","325995","66606","70022","75469","80658","62266","10096","402285","394441","402288","301457","325999","402289","103010","403769","342249","403870","59469","399513","NA","NA","NA","379077","9646","Hommel2002EXP01","3","3810","3","yes","1024"
"n","no","yes","rect","100","100","1163","1163","black","no","xpyriment","legacy","green","blue","yellow","red","legacy","0","uniform","1","1","/","1","NA","NA","2","NA","NA","NA","NA","2","0","35","0","0","0","0","35","35","0","0","35","35","35","35","35","0","0","0","0","0","0","35","35","35","35","35","35","35","35","35","35","0","35","NA","NA","NA","2","0","01/05/16 12:07:35","Default description","no","chinese-japanese-korean","no","18","white","開始實驗B","768","legacy","C:/Users/Evonne/Desktop/test/Compatibility/3_Data Collection/RAW/B-2.csv","xpyriment","Interactive Ising","3.0.2","yes","0","/","NA","space","space","space","/","space","space","/","space","845","NA","36024","3410","5441","5182","3954","4320","845","2737","legacy","500","experiment","1","odd","NA","NA","NA","379077","NA","NA","NA","NA","NA","343044","408032","NA","NA","NA","84614","409800","408296","NA","84614","410800","394437","402284","301453","410804","66606","70022","75469","80658","62266","10096","411304","394441","402288","301457","411308","411308","103010","412158","342249","412259","59469","408031","NA","NA","NA","379077","9646","Hommel2002EXP01","4","4655","4","yes","1024"
"n","no","yes","rect","100","100","1084","1084","black","no","xpyriment","legacy","red","yellow","green","blue","legacy","0","uniform","1","1","/","1","NA","NA","2","NA","NA","NA","NA","2","0","36","0","0","0","0","36","36","0","0","36","36","36","36","36","0","0","0","0","0","0","36","36","36","36","36","36","36","36","36","36","0","36","NA","NA","NA","2","0","01/05/16 12:07:35","Default description","no","chinese-japanese-korean","no","18","white","開始實驗B","768","legacy","C:/Users/Evonne/Desktop/test/Compatibility/3_Data Collection/RAW/B-2.csv","xpyriment","Interactive Ising","3.0.2","yes","0","/","NA","space","space","space","/","space","space","/","space","765","NA","36024","3410","5441","5182","3954","4320","765","2737","legacy","0","experiment","1","odd","NA","NA","NA","379077","NA","NA","NA","NA","NA","343044","416570","NA","NA","NA","84614","418250","416705","NA","84614","419251","394437","402284","301453","419255","66606","70022","75469","80658","62266","10096","419256","394441","402288","301457","419259","419260","103010","420031","342249","420131","59469","416569","NA","NA","NA","379077","9646","Hommel2002EXP01","5","5420","5","yes","1024"
"y","no","yes","rect","100","100","1039","1039","black","no","xpyriment","legacy","green","blue","red","yellow","legacy","0","uniform","1","1","/","1","NA","NA","2","NA","NA","NA","NA","2","0","37","0","0","0","0","37","37","0","0","37","37","37","37","37","0","0","0","0","0","0","37","37","37","37","37","37","37","37","37","37","0","37","NA","NA","NA","2","0","01/05/16 12:07:35","Default description","no","chinese-japanese-korean","no","18","white","開始實驗B","768","legacy","C:/Users/Evonne/Desktop/test/Compatibility/3_Data Collection/RAW/B-2.csv","xpyriment","Interactive Ising","3.0.2","yes","0","/","NA","space","space","space","/","space","space","/","space","819","NA","36024","3410","5441","5182","3954","4320","819","2737","legacy","0","experiment","1","odd","NA","NA","NA","379077","NA","NA","NA","NA","NA","343044","423800","NA","NA","NA","84614","425630","424085","NA","84614","426631","394437","402284","426635","419255","66606","70022","75469","80658","62266","10096","426635","394441","402288","426639","419259","426639","103010","427464","342249","427564","59469","423799","NA","NA","NA","379077","9646","Hommel2002EXP01","6","6239","6","yes","1024"
"n","no","yes","rect","100","100","1009","1009","black","no","xpyriment","legacy","red","blue","green","yellow","legacy","0","uniform","1","1","/","1","NA","NA","2","NA","NA","NA","NA","2","0","38","0","0","0","0","38","38","0","0","38","38","38","38","38","0","0","0","0","0","0","38","38","38","38","38","38","38","38","38","38","0","38","NA","NA","NA","2","0","01/05/16 12:07:35","Default description","no","chinese-japanese-korean","no","18","white","開始實驗B","768","legacy","C:/Users/Evonne/Desktop/test/Compatibility/3_Data Collection/RAW/B-2.csv","xpyriment","Interactive Ising","3.0.2","yes","0","/","NA","space","space","space","/","space","space","/","space","829","NA","36024","3410","5441","5182","3954","4320","829","2737","legacy","500","experiment","1","odd","NA","NA","NA","379077","NA","NA","NA","NA","NA","343044","431558","NA","NA","NA","84614","433337","431788","NA","84614","434337","394437","402284","426635","434341","66606","70022","75469","80658","62266","10096","434841","394441","402288","426639","434845","434845","103010","435679","342249","435780","59469","431557","NA","NA","NA","379077","9646","Hommel2002EXP01","7","7068","7","yes","1024"
"y","no","yes","circle","100","100","984","984","black","no","xpyriment","legacy","blue","green","yellow","red","legacy","0","uniform","1","1","z","1","NA","NA","2","NA","NA","NA","NA","2","0","39","0","0","0","0","39","39","0","0","39","39","39","39","39","0","0","0","0","0","0","39","39","39","39","39","39","39","39","39","39","0","39","NA","NA","NA","2","0","01/05/16 12:07:35","Default description","no","chinese-japanese-korean","no","18","white","開始實驗B","768","legacy","C:/Users/Evonne/Desktop/test/Compatibility/3_Data Collection/RAW/B-2.csv","xpyriment","Interactive Ising","3.0.2","yes","0","z","NA","space","space","space","/","space","space","z","space","809","NA","36024","3410","5441","5182","3954","4320","809","2737","legacy","500","experiment","1","odd","NA","NA","NA","379077","NA","NA","NA","NA","NA","343044","440102","NA","NA","NA","84614","441796","440249","NA","84614","442796","442800","402284","426635","434341","66606","70022","75469","80658","62266","10096","443300","443304","402288","426639","434845","443304","103010","444119","342249","444219","59469","440101","NA","NA","NA","379077","9646","Hommel2002EXP01","8","7877","8","yes","1024"
"y","no","yes","circle","100","100","966","966","black","no","xpyriment","legacy","blue","yellow","red","green","legacy","0","uniform","1","1","z","1","NA","NA","2","NA","NA","NA","NA","2","0","40","0","0","0","0","40","40","0","0","40","40","40","40","40","0","0","0","0","0","0","40","40","40","40","40","40","40","40","40","40","0","40","NA","NA","NA","2","0","01/05/16 12:07:35","Default description","no","chinese-japanese-korean","no","18","white","開始實驗B","768","legacy","C:/Users/Evonne/Desktop/test/Compatibility/3_Data Collection/RAW/B-2.csv","xpyriment","Interactive Ising","3.0.2","yes","0","z","NA","space","space","space","/","space","space","z","space","820","NA","36024","3410","5441","5182","3954","4320","820","2737","legacy","500","experiment","1","odd","NA","NA","NA","379077","NA","NA","NA","NA","NA","343044","448850","NA","NA","NA","84614","450603","449056","NA","84614","451604","451608","402284","426635","434341","66606","70022","75469","80658","62266","10096","452108","452112","402288","426639","434845","452113","103010","452939","342249","453039","59469","448849","NA","NA","NA","379077","9646","Hommel2002EXP01","9","8697","9","yes","1024"
"y","no","yes","rect","100","100","960","960","black","no","xpyriment","legacy","red","yellow","green","blue","legacy","0","uniform","1","1","/","1","NA","NA","2","NA","NA","NA","NA","2","0","41","0","0","0","0","41","41","0","0","41","41","41","41","41","0","0","0","0","0","0","41","41","41","41","41","41","41","41","41","41","0","41","NA","NA","NA","2","0","01/05/16 12:07:35","Default description","no","chinese-japanese-korean","no","18","white","開始實驗B","768","legacy","C:/Users/Evonne/Desktop/test/Compatibility/3_Data Collection/RAW/B-2.csv","xpyriment","Interactive Ising","3.0.2","yes","0","/","NA","space","space","space","/","space","space","/","space","903","NA","36024","3410","5441","5182","3954","4320","903","2737","legacy","0","experiment","1","odd","NA","NA","NA","379077","NA","NA","NA","NA","NA","343044","457330","NA","NA","NA","84614","459265","457762","NA","84614","460266","451608","402284","460270","434341","66606","70022","75469","80658","62266","10096","460270","452112","402288","460275","434845","460275","103010","461183","342249","461283","59469","457329","NA","NA","NA","379077","9646","Hommel2002EXP01","10","9600","10","yes","1024"
"n","no","yes","circle","100","100","947","947","black","no","xpyriment","legacy","green","blue","red","yellow","legacy","0","uniform","1","1","z","1","NA","NA","2","NA","NA","NA","NA","2","0","42","0","0","0","0","42","42","0","0","42","42","42","42","42","0","0","0","0","0","0","42","42","42","42","42","42","42","42","42","42","0","42","NA","NA","NA","2","0","01/05/16 12:07:35","Default description","no","chinese-japanese-korean","no","18","white","開始實驗B","768","legacy","C:/Users/Evonne/Desktop/test/Compatibility/3_Data Collection/RAW/B-2.csv","xpyriment","Interactive Ising","3.0.2","yes","0","z","NA","space","space","space","/","space","space","z","space","820","NA","36024","3410","5441","5182","3954","4320","820","2737","legacy","500","experiment","1","odd","NA","NA","NA","379077","NA","NA","NA","NA","NA","343044","465141","NA","NA","NA","84614","466829","465290","NA","84614","467829","451608","467833","460270","434341","66606","70022","75469","80658","62266","10096","468333","452112","468338","460275","434845","468339","103010","469166","342249","469267","59469","465141","NA","NA","NA","379077","9646","Hommel2002EXP01","11","10420","11","yes","1024"
"y","no","yes","circle","100","100","950","950","black","no","xpyriment","legacy","yellow","red","green","blue","legacy","0","uniform","1","1","z","1","NA","NA","2","NA","NA","NA","NA","2","0","43","0","0","0","0","43","43","0","0","43","43","43","43","43","0","0","0","0","0","0","43","43","43","43","43","43","43","43","43","43","0","43","NA","NA","NA","2","0","01/05/16 12:07:35","Default description","no","chinese-japanese-korean","no","18","white","開始實驗B","768","legacy","C:/Users/Evonne/Desktop/test/Compatibility/3_Data Collection/RAW/B-2.csv","xpyriment","Interactive Ising","3.0.2","yes","0","z","NA","space","space","space","/","space","space","z","space","988","NA","36024","3410","5441","5182","3954","4320","988","2737","legacy","0","experiment","1","odd","NA","NA","NA","379077","NA","NA","NA","NA","NA","343044","473162","NA","NA","NA","84614","475002","473453","NA","84614","476002","476006","467833","460270","434341","66606","70022","75469","80658","62266","10096","476006","476010","468338","460275","434845","476011","103010","477005","342249","477105","59469","473161","NA","NA","NA","379077","9646","Hommel2002EXP01","12","11408","12","yes","1024"
"n","no","yes","rect","100","100","935","935","black","no","xpyriment","legacy","red","green","blue","yellow","legacy","0","uniform","1","1","/","1","NA","NA","2","NA","NA","NA","NA","2","0","44","0","0","0","0","44","44","0","0","44","44","44","44","44","0","0","0","0","0","0","44","44","44","44","44","44","44","44","44","44","0","44","NA","NA","NA","2","0","01/05/16 12:07:35","Default description","no","chinese-japanese-korean","no","18","white","開始實驗B","768","legacy","C:/Users/Evonne/Desktop/test/Compatibility/3_Data Collection/RAW/B-2.csv","xpyriment","Interactive Ising","3.0.2","yes","0","/","NA","space","space","space","/","space","space","/","space","753","NA","36024","3410","5441","5182","3954","4320","753","2737","legacy","0","experiment","1","odd","NA","NA","NA","379077","NA","NA","NA","NA","NA","343044","481055","NA","NA","NA","84614","482853","481307","NA","84614","483853","476006","467833","460270","483857","66606","70022","75469","80658","62266","10096","483857","476010","468338","460275","483861","483861","103010","484620","342249","484721","59469","481055","NA","NA","NA","379077","9646","Hommel2002EXP01","13","12161","13","yes","1024"
"y","no","yes","rect","100","100","961","961","black","no","xpyriment","legacy","red","blue","yellow","green","legacy","0","uniform","1","1","/","1","NA","NA","2","NA","NA","NA","NA","2","0","45","0","0","0","0","45","45","0","0","45","45","45","45","45","0","0","0","0","0","0","45","45","45","45","45","45","45","45","45","45","0","45","NA","NA","NA","2","0","01/05/16 12:07:35","Default description","no","chinese-japanese-korean","no","18","white","開始實驗B","768","legacy","C:/Users/Evonne/Desktop/test/Compatibility/3_Data Collection/RAW/B-2.csv","xpyriment","Interactive Ising","3.0.2","yes","0","/","NA","space","space","space","/","space","space","/","space","1300","NA","36024","3410","5441","5182","3954","4320","1300","2737","legacy","500","experiment","1","odd","NA","NA","NA","379077","NA","NA","NA","NA","NA","343044","488841","NA","NA","NA","84614","490673","489125","NA","84614","491673","476006","467833","491677","483857","66606","70022","75469","80658","62266","10096","492177","476010","468338","492181","483861","492181","103010","493488","342249","493588","59469","488841","NA","NA","NA","379077","9646","Hommel2002EXP01","14","13461","14","yes","1024"
"y","no","yes","rect","100","100","947","947","black","no","xpyriment","legacy","red","blue","yellow","green","legacy","0","uniform","1","1","/","1","NA","NA","2","NA","NA","NA","NA","2","0","46","0","0","0","0","46","46","0","0","46","46","46","46","46","0","0","0","0","0","0","46","46","46","46","46","46","46","46","46","46","0","46","NA","NA","NA","2","0","01/05/16 12:07:35","Default description","no","chinese-japanese-korean","no","18","white","開始實驗B","768","legacy","C:/Users/Evonne/Desktop/test/Compatibility/3_Data Collection/RAW/B-2.csv","xpyriment","Interactive Ising","3.0.2","yes","0","/","NA","space","space","space","/","space","space","/","space","758","NA","36024","3410","5441","5182","3954","4320","758","2737","legacy","500","experiment","1","odd","NA","NA","NA","379077","NA","NA","NA","NA","NA","343044","497659","NA","NA","NA","84614","499453","497907","NA","84614","500454","476006","467833","500459","483857","66606","70022","75469","80658","62266","10096","500959","476010","468338","500963","483861","500963","103010","501727","342249","501827","59469","497659","NA","NA","NA","379077","9646","Hommel2002EXP01","15","14219","15","yes","1024"
"n","no","yes","circle","100","100","936","936","black","no","xpyriment","legacy","green","yellow","blue","red","legacy","0","uniform","1","1","z","1","NA","NA","2","NA","NA","NA","NA","2","0","47","0","0","0","0","47","47","0","0","47","47","47","47","47","0","0","0","0","0","0","47","47","47","47","47","47","47","47","47","47","0","47","NA","NA","NA","2","0","01/05/16 12:07:35","Default description","no","chinese-japanese-korean","no","18","white","開始實驗B","768","legacy","C:/Users/Evonne/Desktop/test/Compatibility/3_Data Collection/RAW/B-2.csv","xpyriment","Interactive Ising","3.0.2","yes","0","z","NA","space","space","space","/","space","space","z","space","769","NA","36024","3410","5441","5182","3954","4320","769","2737","legacy","500","experiment","1","odd","NA","NA","NA","379077","NA","NA","NA","NA","NA","343044","506097","NA","NA","NA","84614","507810","506270","NA","84614","508810","476006","508814","500459","483857","66606","70022","75469","80658","62266","10096","509314","476010","509318","500963","483861","509318","103010","510093","342249","510194","59469","506096","NA","NA","NA","379077","9646","Hommel2002EXP01","16","14988","16","yes","1024"
"y","no","yes","rect","100","100","910","910","black","no","xpyriment","legacy","green","yellow","blue","red","legacy","0","uniform","1","1","/","1","NA","NA","3","NA","NA","NA","NA","3","0","48","0","0","0","0","48","48","0","0","48","48","48","48","48","0","0","0","0","0","0","48","48","48","48","48","48","48","48","48","48","0","48","NA","NA","NA","3","0","01/05/16 12:07:35","Default description","no","chinese-japanese-korean","no","18","white","開始實驗B","768","legacy","C:/Users/Evonne/Desktop/test/Compatibility/3_Data Collection/RAW/B-2.csv","xpyriment","Interactive Ising","3.0.2","yes","0","/","NA","space","space","space","/","space","space","/","space","910","NA","36024","3410","5441","5182","3954","4320","910","2737","legacy","500","experiment","1","odd","NA","NA","NA","510235","NA","NA","NA","NA","NA","343044","514573","NA","NA","NA","84614","516409","514906","NA","84614","517409","476006","508814","517413","483857","66606","70022","75469","80658","62266","10096","517913","476010","509318","517917","483861","517917","103010","518833","342249","518933","59469","514573","NA","NA","NA","510236","9646","Hommel2002EXP01","1","910","1","yes","1024"
"y","no","yes","circle","100","100","859","859","black","no","xpyriment","legacy","yellow","green","red","blue","legacy","0","uniform","1","1","z","1","NA","NA","3","NA","NA","NA","NA","3","0","49","0","0","0","0","49","49","0","0","49","49","49","49","49","0","0","0","0","0","0","49","49","49","49","49","49","49","49","49","49","0","49","NA","NA","NA","3","0","01/05/16 12:07:35","Default description","no","chinese-japanese-korean","no","18","white","開始實驗B","768","legacy","C:/Users/Evonne/Desktop/test/Compatibility/3_Data Collection/RAW/B-2.csv","xpyriment","Interactive Ising","3.0.2","yes","0","z","NA","space","space","space","/","space","space","z","space","808","NA","36024","3410","5441","5182","3954","4320","808","2737","legacy","0","experiment","1","odd","NA","NA","NA","510235","NA","NA","NA","NA","NA","343044","523175","NA","NA","NA","84614","524863","523311","NA","84614","525863","525867","508814","517413","483857","66606","70022","75469","80658","62266","10096","525867","525871","509318","517917","483861","525872","103010","526686","342249","526786","59469","523174","NA","NA","NA","510236","9646","Hommel2002EXP01","2","1718","2","yes","1024"
"n","no","yes","circle","66.6666666667","66.6666666667","1239","1239","black","no","xpyriment","legacy","green","yellow","red","blue","legacy","0","uniform","0","0","z","1","NA","NA","3","NA","NA","NA","NA","3","0","50","0","0","0","0","50","50","0","0","50","50","50","50","50","0","0","0","0","0","0","50","50","50","50","50","50","50","50","50","50","0","50","NA","NA","NA","3","0","01/05/16 12:07:35","Default description","no","chinese-japanese-korean","no","18","white","開始實驗B","768","legacy","C:/Users/Evonne/Desktop/test/Compatibility/3_Data Collection/RAW/B-2.csv","xpyriment","Interactive Ising","3.0.2","yes","0","None","NA","space","space","space","/","space","space","None","space","2000","NA","36024","3410","5441","5182","3954","4320","2000","2737","legacy","0","experiment","1","odd","NA","NA","NA","510235","NA","NA","NA","NA","NA","343044","530708","NA","NA","NA","84614","532548","530998","NA","84614","533548","525867","533553","517413","483857","66606","70022","75469","80658","62266","10096","533554","525871","533558","517917","483861","533559","535670","526686","535566","535770","59469","530707","NA","NA","NA","510236","9646","Hommel2002EXP01","2","3718","3","yes","1024"
"n","no","yes","rect","75","75","1234","1234","black","no","xpyriment","legacy","green","red","yellow","blue","legacy","0","uniform","1","1","/","1","NA","NA","3","NA","NA","NA","NA","3","0","51","0","0","0","0","51","51","0","0","51","51","51","51","51","0","0","0","0","0","0","51","51","51","51","51","51","51","51","51","51","0","51","NA","NA","NA","3","0","01/05/16 12:07:35","Default description","no","chinese-japanese-korean","no","18","white","開始實驗B","768","legacy","C:/Users/Evonne/Desktop/test/Compatibility/3_Data Collection/RAW/B-2.csv","xpyriment","Interactive Ising","3.0.2","yes","0","/","NA","space","space","space","/","space","space","/","space","1219","NA","36024","3410","5441","5182","3954","4320","1219","2737","legacy","0","experiment","1","odd","NA","NA","NA","510235","NA","NA","NA","NA","NA","343044","539608","NA","NA","NA","84614","541429","539888","NA","84614","542430","525867","533553","517413","542434","66606","70022","75469","80658","62266","10096","542434","525871","533558","517917","542439","542439","535670","543664","535566","543764","59469","539608","NA","NA","NA","510236","9646","Hommel2002EXP01","3","4937","4","yes","1024"
"y","no","yes","rect","80","80","1157","1157","black","no","xpyriment","legacy","yellow","blue","red","green","legacy","0","uniform","1","1","/","1","NA","NA","3","NA","NA","NA","NA","3","0","52","0","0","0","0","52","52","0","0","52","52","52","52","52","0","0","0","0","0","0","52","52","52","52","52","52","52","52","52","52","0","52","NA","NA","NA","3","0","01/05/16 12:07:35","Default description","no","chinese-japanese-korean","no","18","white","開始實驗B","768","legacy","C:/Users/Evonne/Desktop/test/Compatibility/3_Data Collection/RAW/B-2.csv","xpyriment","Interactive Ising","3.0.2","yes","0","/","NA","space","space","space","/","space","space","/","space","848","NA","36024","3410","5441","5182","3954","4320","848","2737","legacy","500","experiment","1","odd","NA","NA","NA","510235","NA","NA","NA","NA","NA","343044","547686","NA","NA","NA","84614","549482","547943","NA","84614","550482","525867","533553","550486","542434","66606","70022","75469","80658","62266","10096","550986","525871","533558","550990","542439","550990","535670","551844","535566","551944","59469","547685","NA","NA","NA","510236","9646","Hommel2002EXP01","4","5785","5","yes","1024"
"n","no","yes","rect","83.3333333333","83.3333333333","1098","1098","black","no","xpyriment","legacy","green","blue","yellow","red","legacy","0","uniform","1","1","/","1","NA","NA","3","NA","NA","NA","NA","3","0","53","0","0","0","0","53","53","0","0","53","53","53","53","53","0","0","0","0","0","0","53","53","53","53","53","53","53","53","53","53","0","53","NA","NA","NA","3","0","01/05/16 12:07:35","Default description","no","chinese-japanese-korean","no","18","white","開始實驗B","768","legacy","C:/Users/Evonne/Desktop/test/Compatibility/3_Data Collection/RAW/B-2.csv","xpyriment","Interactive Ising","3.0.2","yes","0","/","NA","space","space","space","/","space","space","/","space","807","NA","36024","3410","5441","5182","3954","4320","807","2737","legacy","500","experiment","1","odd","NA","NA","NA","510235","NA","NA","NA","NA","NA","343044","556045","NA","NA","NA","84614","557774","556227","NA","84614","558774","525867","533553","550486","558778","66606","70022","75469","80658","62266","10096","559278","525871","533558","550990","559282","559282","535670","560094","535566","560195","59469","556044","NA","NA","NA","510236","9646","Hommel2002EXP01","5","6592","6","yes","1024"
"n","no","yes","circle","85.7142857143","85.7142857143","1063","1063","black","no","xpyriment","legacy","yellow","green","blue","red","legacy","0","uniform","1","1","z","1","NA","NA","3","NA","NA","NA","NA","3","0","54","0","0","0","0","54","54","0","0","54","54","54","54","54","0","0","0","0","0","0","54","54","54","54","54","54","54","54","54","54","0","54","NA","NA","NA","3","0","01/05/16 12:07:35","Default description","no","chinese-japanese-korean","no","18","white","開始實驗B","768","legacy","C:/Users/Evonne/Desktop/test/Compatibility/3_Data Collection/RAW/B-2.csv","xpyriment","Interactive Ising","3.0.2","yes","0","z","NA","space","space","space","/","space","space","z","space","851","NA","36024","3410","5441","5182","3954","4320","851","2737","legacy","500","experiment","1","odd","NA","NA","NA","510235","NA","NA","NA","NA","NA","343044","564475","NA","NA","NA","84614","566282","564779","NA","84614","567282","525867","567286","550486","558778","66606","70022","75469","80658","62266","10096","567786","525871","567790","550990","559282","567790","535670","568646","535566","568747","59469","564475","NA","NA","NA","510236","9646","Hommel2002EXP01","6","7443","7","yes","1024"
"y","no","yes","circle","87.5","87.5","1025","1025","black","no","xpyriment","legacy","red","blue","yellow","green","legacy","0","uniform","1","1","z","1","NA","NA","3","NA","NA","NA","NA","3","0","55","0","0","0","0","55","55","0","0","55","55","55","55","55","0","0","0","0","0","0","55","55","55","55","55","55","55","55","55","55","0","55","NA","NA","NA","3","0","01/05/16 12:07:35","Default description","no","chinese-japanese-korean","no","18","white","開始實驗B","768","legacy","C:/Users/Evonne/Desktop/test/Compatibility/3_Data Collection/RAW/B-2.csv","xpyriment","Interactive Ising","3.0.2","yes","0","z","NA","space","space","space","/","space","space","z","space","758","NA","36024","3410","5441","5182","3954","4320","758","2737","legacy","500","experiment","1","odd","NA","NA","NA","510235","NA","NA","NA","NA","NA","343044","573193","NA","NA","NA","84614","574951","573448","NA","84614","575951","575955","567286","550486","558778","66606","70022","75469","80658","62266","10096","576455","576459","567790","550990","559282","576459","535670","577223","535566","577323","59469","573193","NA","NA","NA","510236","9646","Hommel2002EXP01","7","8201","8","yes","1024"
"n","no","yes","rect","88.8888888889","88.8888888889","1005","1005","black","no","xpyriment","legacy","yellow","green","red","blue","legacy","0","uniform","1","1","/","1","NA","NA","3","NA","NA","NA","NA","3","0","56","0","0","0","0","56","56","0","0","56","56","56","56","56","0","0","0","0","0","0","56","56","56","56","56","56","56","56","56","56","0","56","NA","NA","NA","3","0","01/05/16 12:07:35","Default description","no","chinese-japanese-korean","no","18","white","開始實驗B","768","legacy","C:/Users/Evonne/Desktop/test/Compatibility/3_Data Collection/RAW/B-2.csv","xpyriment","Interactive Ising","3.0.2","yes","0","/","NA","space","space","space","/","space","space","/","space","851","NA","36024","3410","5441","5182","3954","4320","851","2737","legacy","500","experiment","1","odd","NA","NA","NA","510235","NA","NA","NA","NA","NA","343044","580989","NA","NA","NA","84614","582812","581270","NA","84614","583813","575955","567286","550486","583817","66606","70022","75469","80658","62266","10096","584317","576459","567790","550990","584321","584321","535670","585179","535566","585279","59469","580988","NA","NA","NA","510236","9646","Hommel2002EXP01","8","9052","9","yes","1024"
"y","no","yes","rect","90","90","1005","1005","black","no","xpyriment","legacy","yellow","green","blue","red","legacy","0","uniform","1","1","/","1","NA","NA","3","NA","NA","NA","NA","3","0","57","0","0","0","0","57","57","0","0","57","57","57","57","57","0","0","0","0","0","0","57","57","57","57","57","57","57","57","57","57","0","57","NA","NA","NA","3","0","01/05/16 12:07:35","Default description","no","chinese-japanese-korean","no","18","white","開始實驗B","768","legacy","C:/Users/Evonne/Desktop/test/Compatibility/3_Data Collection/RAW/B-2.csv","xpyriment","Interactive Ising","3.0.2","yes","0","/","NA","space","space","space","/","space","space","/","space","1007","NA","36024","3410","5441","5182","3954","4320","1007","2737","legacy","0","experiment","1","odd","NA","NA","NA","510235","NA","NA","NA","NA","NA","343044","589098","NA","NA","NA","84614","590930","589382","NA","84614","591930","575955","567286","591934","583817","66606","70022","75469","80658","62266","10096","591934","576459","567790","591938","584321","591938","535670","592951","535566","593051","59469","589098","NA","NA","NA","510236","9646","Hommel2002EXP01","9","10059","10","yes","1024"
"n","no","yes","circle","90.9090909091","90.9090909091","1080","1080","black","no","xpyriment","legacy","green","yellow","blue","red","legacy","0","uniform","1","1","z","1","NA","NA","3","NA","NA","NA","NA","3","0","58","0","0","0","0","58","58","0","0","58","58","58","58","58","0","0","0","0","0","0","58","58","58","58","58","58","58","58","58","58","0","58","NA","NA","NA","3","0","01/05/16 12:07:35","Default description","no","chinese-japanese-korean","no","18","white","開始實驗B","768","legacy","C:/Users/Evonne/Desktop/test/Compatibility/3_Data Collection/RAW/B-2.csv","xpyriment","Interactive Ising","3.0.2","yes","0","z","NA","space","space","space","/","space","space","z","space","1827","NA","36024","3410","5441","5182","3954","4320","1827","2737","legacy","0","experiment","1","odd","NA","NA","NA","510235","NA","NA","NA","NA","NA","343044","597244","NA","NA","NA","84614","599073","597526","NA","84614","600073","575955","600077","591934","583817","66606","70022","75469","80658","62266","10096","600078","576459","600081","591938","584321","600082","535670","601914","535566","602015","59469","597244","NA","NA","NA","510236","9646","Hommel2002EXP01","10","11886","11","yes","1024"
"n","no","yes","rect","91.6666666667","91.6666666667","1083","1083","black","no","xpyriment","legacy","yellow","red","blue","green","legacy","0","uniform","1","1","/","1","NA","NA","3","NA","NA","NA","NA","3","0","59","0","0","0","0","59","59","0","0","59","59","59","59","59","0","0","0","0","0","0","59","59","59","59","59","59","59","59","59","59","0","59","NA","NA","NA","3","0","01/05/16 12:07:35","Default description","no","chinese-japanese-korean","no","18","white","開始實驗B","768","legacy","C:/Users/Evonne/Desktop/test/Compatibility/3_Data Collection/RAW/B-2.csv","xpyriment","Interactive Ising","3.0.2","yes","0","/","NA","space","space","space","/","space","space","/","space","1110","NA","36024","3410","5441","5182","3954","4320","1110","2737","legacy","0","experiment","1","odd","NA","NA","NA","510235","NA","NA","NA","NA","NA","343044","606111","NA","NA","NA","84614","608011","606508","NA","84614","609011","575955","600077","591934","609015","66606","70022","75469","80658","62266","10096","609016","576459","600081","591938","609020","609021","535670","610137","535566","610237","59469","606110","NA","NA","NA","510236","9646","Hommel2002EXP01","11","12996","12","yes","1024"
"n","no","yes","circle","92.3076923077","92.3076923077","1061","1061","black","no","xpyriment","legacy","yellow","green","blue","red","legacy","0","uniform","1","1","z","1","NA","NA","3","NA","NA","NA","NA","3","0","60","0","0","0","0","60","60","0","0","60","60","60","60","60","0","0","0","0","0","0","60","60","60","60","60","60","60","60","60","60","0","60","NA","NA","NA","3","0","01/05/16 12:07:35","Default description","no","chinese-japanese-korean","no","18","white","開始實驗B","768","legacy","C:/Users/Evonne/Desktop/test/Compatibility/3_Data Collection/RAW/B-2.csv","xpyriment","Interactive Ising","3.0.2","yes","0","z","NA","space","space","space","/","space","space","z","space","805","NA","36024","3410","5441","5182","3954","4320","805","2737","legacy","500","experiment","1","odd","NA","NA","NA","510235","NA","NA","NA","NA","NA","343044","614168","NA","NA","NA","84614","615915","614368","NA","84614","616915","575955","616919","591934","609015","66606","70022","75469","80658","62266","10096","617419","576459","617423","591938","609020","617423","535670","618234","535566","618334","59469","614167","NA","NA","NA","510236","9646","Hommel2002EXP01","12","13801","13","yes","1024"
"y","no","yes","circle","92.8571428571","92.8571428571","1055","1055","black","no","xpyriment","legacy","blue","red","yellow","green","legacy","0","uniform","1","1","z","1","NA","NA","3","NA","NA","NA","NA","3","0","61","0","0","0","0","61","61","0","0","61","61","61","61","61","0","0","0","0","0","0","61","61","61","61","61","61","61","61","61","61","0","61","NA","NA","NA","3","0","01/05/16 12:07:35","Default description","no","chinese-japanese-korean","no","18","white","開始實驗B","768","legacy","C:/Users/Evonne/Desktop/test/Compatibility/3_Data Collection/RAW/B-2.csv","xpyriment","Interactive Ising","3.0.2","yes","0","z","NA","space","space","space","/","space","space","z","space","971","NA","36024","3410","5441","5182","3954","4320","971","2737","legacy","0","experiment","1","odd","NA","NA","NA","510235","NA","NA","NA","NA","NA","343044","622323","NA","NA","NA","84614","624155","622608","NA","84614","625155","625159","616919","591934","609015","66606","70022","75469","80658","62266","10096","625159","625163","617423","591938","609020","625163","535670","626140","535566","626240","59469","622323","NA","NA","NA","510236","9646","Hommel2002EXP01","13","14772","14","yes","1024"
"y","no","yes","rect","93.3333333333","93.3333333333","1060","1060","black","no","xpyriment","legacy","blue","yellow","red","green","legacy","0","uniform","1","1","/","1","NA","NA","3","NA","NA","NA","NA","3","0","62","0","0","0","0","62","62","0","0","62","62","62","62","62","0","0","0","0","0","0","62","62","62","62","62","62","62","62","62","62","0","62","NA","NA","NA","3","0","01/05/16 12:07:35","Default description","no","chinese-japanese-korean","no","18","white","開始實驗B","768","legacy","C:/Users/Evonne/Desktop/test/Compatibility/3_Data Collection/RAW/B-2.csv","xpyriment","Interactive Ising","3.0.2","yes","0","/","NA","space","space","space","/","space","space","/","space","1128","NA","36024","3410","5441","5182","3954","4320","1128","2737","legacy","0","experiment","1","odd","NA","NA","NA","510235","NA","NA","NA","NA","NA","343044","630148","NA","NA","NA","84614","631980","630437","NA","84614","632980","625159","616919","632984","609015","66606","70022","75469","80658","62266","10096","632985","625163","617423","632989","609020","632989","535670","634123","535566","634223","59469","630147","NA","NA","NA","510236","9646","Hommel2002EXP01","14","15900","15","yes","1024"
"y","no","yes","circle","93.75","93.75","1069","1069","black","no","xpyriment","legacy","green","red","yellow","blue","legacy","0","uniform","1","1","z","1","NA","NA","3","NA","NA","NA","NA","3","0","63","0","0","0","0","63","63","0","0","63","63","63","63","63","0","0","0","0","0","0","63","63","63","63","63","63","63","63","63","63","0","63","NA","NA","NA","3","0","01/05/16 12:07:35","Default description","no","chinese-japanese-korean","no","18","white","開始實驗B","768","legacy","C:/Users/Evonne/Desktop/test/Compatibility/3_Data Collection/RAW/B-2.csv","xpyriment","Interactive Ising","3.0.2","yes","0","z","NA","space","space","space","/","space","space","z","space","1206","NA","36024","3410","5441","5182","3954","4320","1206","2737","legacy","500","experiment","1","odd","NA","NA","NA","510235","NA","NA","NA","NA","NA","343044","638246","NA","NA","NA","84614","640075","638525","NA","84614","641075","641079","616919","632984","609015","66606","70022","75469","80658","62266","10096","641579","641583","617423","632989","609020","641583","535670","642795","535566","642895","59469","638245","NA","NA","NA","510236","9646","Hommel2002EXP01","15","17106","16","yes","1024"
"y","no","yes","rect","100","100","956","956","black","no","xpyriment","legacy","red","green","blue","yellow","legacy","0","uniform","1","1","/","1","NA","0","3","NA","NA","0","NA","3","1","64","0","0","0","0","64","64","0","0","64","64","64","64","64","0","0","0","0","0","0","64","64","64","64","64","64","64","64","64","64","0","64","NA","0","NA","3","0","01/05/16 12:07:35","Default description","no","chinese-japanese-korean","no","18","white","開始實驗B","768","legacy","C:/Users/Evonne/Desktop/test/Compatibility/3_Data Collection/RAW/B-2.csv","xpyriment","Interactive Ising","3.0.2","no","0","/","space","space","space","space","/","space","space","/","space","956","1599","23136","3410","5441","5182","3954","4320","956","2737","legacy","250","experiment","1","odd","666747","NA","668357","510235","NA","NA","NA","NA","NA","643577","672637","NA","668347","NA","84614","674334","672790","NA","84614","675335","641079","616919","675339","609015","66606","70022","75469","80658","62266","10096","675589","641583","617423","675593","609020","675593","535670","676556","535566","676656","59469","672636","NA","668357","NA","510236","9646","Hommel2002EXP01","1","956","1","yes","1024"
"n","no","yes","rect","100","100","864","864","black","no","xpyriment","legacy","green","blue","yellow","red","legacy","0","uniform","1","1","/","1","NA","0","3","NA","NA","0","NA","3","1","65","0","0","0","0","65","65","0","0","65","65","65","65","65","0","0","0","0","0","0","65","65","65","65","65","65","65","65","65","65","0","65","NA","0","NA","3","0","01/05/16 12:07:35","Default description","no","chinese-japanese-korean","no","18","white","開始實驗B","768","legacy","C:/Users/Evonne/Desktop/test/Compatibility/3_Data Collection/RAW/B-2.csv","xpyriment","Interactive Ising","3.0.2","no","0","/","space","space","space","space","/","space","space","/","space","772","1599","23136","3410","5441","5182","3954","4320","772","2737","legacy","500","experiment","1","odd","666747","NA","668357","510235","NA","NA","NA","NA","NA","643577","680754","NA","668347","NA","84614","682555","681051","NA","84614","683556","641079","616919","675339","683560","66606","70022","75469","80658","62266","10096","684060","641583","617423","675593","684064","684065","535670","684842","535566","684943","59469","680753","NA","668357","NA","510236","9646","Hommel2002EXP01","2","1728","2","yes","1024"
"y","no","yes","circle","100","100","822","822","black","no","xpyriment","legacy","blue","green","red","yellow","legacy","0","uniform","1","1","z","1","NA","0","3","NA","NA","0","NA","3","1","66","0","0","0","0","66","66","0","0","66","66","66","66","66","0","0","0","0","0","0","66","66","66","66","66","66","66","66","66","66","0","66","NA","0","NA","3","0","01/05/16 12:07:35","Default description","no","chinese-japanese-korean","no","18","white","開始實驗B","768","legacy","C:/Users/Evonne/Desktop/test/Compatibility/3_Data Collection/RAW/B-2.csv","xpyriment","Interactive Ising","3.0.2","no","0","z","space","space","space","space","/","space","space","z","space","739","1599","23136","3410","5441","5182","3954","4320","739","2737","legacy","0","experiment","1","odd","666747","NA","668357","510235","NA","NA","NA","NA","NA","643577","689228","NA","668347","NA","84614","690919","689374","NA","84614","691919","691923","616919","675339","683560","66606","70022","75469","80658","62266","10096","691924","691929","617423","675593","684064","691929","535670","692674","535566","692774","59469","689227","NA","668357","NA","510236","9646","Hommel2002EXP01","3","2467","3","yes","1024"
"n","no","yes","rect","100","100","791","791","black","no","xpyriment","legacy","red","green","blue","yellow","legacy","0","uniform","1","1","/","1","NA","0","3","NA","NA","0","NA","3","1","67","0","0","0","0","67","67","0","0","67","67","67","67","67","0","0","0","0","0","0","67","67","67","67","67","67","67","67","67","67","0","67","NA","0","NA","3","0","01/05/16 12:07:35","Default description","no","chinese-japanese-korean","no","18","white","開始實驗B","768","legacy","C:/Users/Evonne/Desktop/test/Compatibility/3_Data Collection/RAW/B-2.csv","xpyriment","Interactive Ising","3.0.2","no","0","/","space","space","space","space","/","space","space","/","space","700","1599","23136","3410","5441","5182","3954","4320","700","2737","legacy","500","experiment","1","odd","666747","NA","668357","510235","NA","NA","NA","NA","NA","643577","696079","NA","668347","NA","84614","697891","696339","NA","84614","698892","691923","616919","675339","698896","66606","70022","75469","80658","62266","10096","699396","691929","617423","675593","699400","699400","535670","700107","535566","700207","59469","696079","NA","668357","NA","510236","9646","Hommel2002EXP01","4","3167","4","yes","1024"
"n","no","yes","circle","100","100","784","784","black","no","xpyriment","legacy","red","green","blue","yellow","legacy","0","uniform","1","1","z","1","NA","0","3","NA","NA","0","NA","3","1","68","0","0","0","0","68","68","0","0","68","68","68","68","68","0","0","0","0","0","0","68","68","68","68","68","68","68","68","68","68","0","68","NA","0","NA","3","0","01/05/16 12:07:35","Default description","no","chinese-japanese-korean","no","18","white","開始實驗B","768","legacy","C:/Users/Evonne/Desktop/test/Compatibility/3_Data Collection/RAW/B-2.csv","xpyriment","Interactive Ising","3.0.2","no","0","z","space","space","space","space","/","space","space","z","space","756","1599","23136","3410","5441","5182","3954","4320","756","2737","legacy","0","experiment","1","odd","666747","NA","668357","510235","NA","NA","NA","NA","NA","643577","704662","NA","668347","NA","84614","706490","704939","NA","84614","707490","691923","707494","675339","698896","66606","70022","75469","80658","62266","10096","707496","691929","707499","675593","699400","707501","535670","708262","535566","708363","59469","704662","NA","668357","NA","510236","9646","Hommel2002EXP01","5","3923","5","yes","1024"
"y","no","yes","circle","100","100","786","786","black","no","xpyriment","legacy","red","blue","yellow","green","legacy","0","uniform","1","1","z","1","NA","0","3","NA","NA","0","NA","3","1","69","0","0","0","0","69","69","0","0","69","69","69","69","69","0","0","0","0","0","0","69","69","69","69","69","69","69","69","69","69","0","69","NA","0","NA","3","0","01/05/16 12:07:35","Default description","no","chinese-japanese-korean","no","18","white","開始實驗B","768","legacy","C:/Users/Evonne/Desktop/test/Compatibility/3_Data Collection/RAW/B-2.csv","xpyriment","Interactive Ising","3.0.2","no","0","z","space","space","space","space","/","space","space","z","space","798","1599","23136","3410","5441","5182","3954","4320","798","2737","legacy","250","experiment","1","odd","666747","NA","668357","510235","NA","NA","NA","NA","NA","643577","712390","NA","668347","NA","84614","714181","712631","NA","84614","715182","715186","707494","675339","698896","66606","70022","75469","80658","62266","10096","715436","715440","707499","675593","699400","715441","535670","716244","535566","716345","59469","712389","NA","668357","NA","510236","9646","Hommel2002EXP01","6","4721","6","yes","1024"
"y","no","yes","circle","100","100","786","786","black","no","xpyriment","legacy","blue","yellow","green","red","legacy","0","uniform","1","1","z","1","NA","0","3","NA","NA","0","NA","3","1","70","0","0","0","0","70","70","0","0","70","70","70","70","70","0","0","0","0","0","0","70","70","70","70","70","70","70","70","70","70","0","70","NA","0","NA","3","0","01/05/16 12:07:35","Default description","no","chinese-japanese-korean","no","18","white","開始實驗B","768","legacy","C:/Users/Evonne/Desktop/test/Compatibility/3_Data Collection/RAW/B-2.csv","xpyriment","Interactive Ising","3.0.2","no","0","z","space","space","space","space","/","space","space","z","space","786","1599","23136","3410","5441","5182","3954","4320","786","2737","legacy","500","experiment","1","odd","666747","NA","668357","510235","NA","NA","NA","NA","NA","643577","720196","NA","668347","NA","84614","721909","720362","NA","84614","722909","722914","707494","675339","698896","66606","70022","75469","80658","62266","10096","723414","723419","707499","675593","699400","723419","535670","724212","535566","724312","59469","720195","NA","668357","NA","510236","9646","Hommel2002EXP01","7","5507","7","yes","1024"
"n","no","yes","rect","100","100","785","785","black","no","xpyriment","legacy","blue","red","yellow","green","legacy","0","uniform","1","1","/","1","NA","0","3","NA","NA","0","NA","3","1","71","0","0","0","0","71","71","0","0","71","71","71","71","71","0","0","0","0","0","0","71","71","71","71","71","71","71","71","71","71","0","71","NA","0","NA","3","0","01/05/16 12:07:35","Default description","no","chinese-japanese-korean","no","18","white","開始實驗B","768","legacy","C:/Users/Evonne/Desktop/test/Compatibility/3_Data Collection/RAW/B-2.csv","xpyriment","Interactive Ising","3.0.2","no","0","/","space","space","space","space","/","space","space","/","space","778","1599","23136","3410","5441","5182","3954","4320","778","2737","legacy","250","experiment","1","odd","666747","NA","668357","510235","NA","NA","NA","NA","NA","643577","728087","NA","668347","NA","84614","729769","728221","NA","84614","730770","722914","707494","675339","730774","66606","70022","75469","80658","62266","10096","731024","723419","707499","675593","731028","731028","535670","731812","535566","731912","59469","728087","NA","668357","NA","510236","9646","Hommel2002EXP01","8","6285","8","yes","1024"
"n","no","yes","circle","100","100","788","788","black","no","xpyriment","legacy","yellow","blue","green","red","legacy","0","uniform","1","1","z","1","NA","0","3","NA","NA","0","NA","3","1","72","0","0","0","0","72","72","0","0","72","72","72","72","72","0","0","0","0","0","0","72","72","72","72","72","72","72","72","72","72","0","72","NA","0","NA","3","0","01/05/16 12:07:35","Default description","no","chinese-japanese-korean","no","18","white","開始實驗B","768","legacy","C:/Users/Evonne/Desktop/test/Compatibility/3_Data Collection/RAW/B-2.csv","xpyriment","Interactive Ising","3.0.2","no","0","z","space","space","space","space","/","space","space","z","space","811","1599","23136","3410","5441","5182","3954","4320","811","2737","legacy","250","experiment","1","odd","666747","NA","668357","510235","NA","NA","NA","NA","NA","643577","736324","NA","668347","NA","84614","738181","736677","NA","84614","739181","722914","739185","675339","730774","66606","70022","75469","80658","62266","10096","739435","723419","739439","675593","731028","739439","535670","740256","535566","740357","59469","736323","NA","668357","NA","510236","9646","Hommel2002EXP01","9","7096","9","yes","1024"
"y","no","yes","rect","100","100","801","801","black","no","xpyriment","legacy","green","yellow","red","blue","legacy","0","uniform","1","1","/","1","NA","0","3","NA","NA","0","NA","3","1","73","0","0","0","0","73","73","0","0","73","73","73","73","73","0","0","0","0","0","0","73","73","73","73","73","73","73","73","73","73","0","73","NA","0","NA","3","0","01/05/16 12:07:35","Default description","no","chinese-japanese-korean","no","18","white","開始實驗B","768","legacy","C:/Users/Evonne/Desktop/test/Compatibility/3_Data Collection/RAW/B-2.csv","xpyriment","Interactive Ising","3.0.2","no","0","/","space","space","space","space","/","space","space","/","space","914","1599","23136","3410","5441","5182","3954","4320","914","2737","legacy","500","experiment","1","odd","666747","NA","668357","510235","NA","NA","NA","NA","NA","643577","744581","NA","668347","NA","84614","746264","744714","NA","84614","747265","722914","739185","747269","730774","66606","70022","75469","80658","62266","10096","747769","723419","739439","747773","731028","747773","535670","748692","535566","748793","59469","744580","NA","668357","NA","510236","9646","Hommel2002EXP01","10","8010","10","yes","1024"
"y","no","yes","circle","100","100","794","794","black","no","xpyriment","legacy","yellow","red","green","blue","legacy","0","uniform","1","1","z","1","NA","0","3","NA","NA","0","NA","3","1","74","0","0","0","0","74","74","0","0","74","74","74","74","74","0","0","0","0","0","0","74","74","74","74","74","74","74","74","74","74","0","74","NA","0","NA","3","0","01/05/16 12:07:35","Default description","no","chinese-japanese-korean","no","18","white","開始實驗B","768","legacy","C:/Users/Evonne/Desktop/test/Compatibility/3_Data Collection/RAW/B-2.csv","xpyriment","Interactive Ising","3.0.2","no","0","z","space","space","space","space","/","space","space","z","space","727","1599","23136","3410","5441","5182","3954","4320","727","2737","legacy","500","experiment","1","odd","666747","NA","668357","510235","NA","NA","NA","NA","NA","643577","752734","NA","668347","NA","84614","754561","753016","NA","84614","755561","755565","739185","747269","730774","66606","70022","75469","80658","62266","10096","756065","756069","739439","747773","731028","756069","535670","756802","535566","756902","59469","752734","NA","668357","NA","510236","9646","Hommel2002EXP01","11","8737","11","yes","1024"
"y","no","yes","rect","100","100","823","823","black","no","xpyriment","legacy","green","red","yellow","blue","legacy","0","uniform","1","1","/","1","NA","0","3","NA","NA","0","NA","3","1","75","0","0","0","0","75","75","0","0","75","75","75","75","75","0","0","0","0","0","0","75","75","75","75","75","75","75","75","75","75","0","75","NA","0","NA","3","0","01/05/16 12:07:35","Default description","no","chinese-japanese-korean","no","18","white","開始實驗B","768","legacy","C:/Users/Evonne/Desktop/test/Compatibility/3_Data Collection/RAW/B-2.csv","xpyriment","Interactive Ising","3.0.2","no","0","/","space","space","space","space","/","space","space","/","space","1141","1599","23136","3410","5441","5182","3954","4320","1141","2737","legacy","0","experiment","1","odd","666747","NA","668357","510235","NA","NA","NA","NA","NA","643577","760798","NA","668347","NA","84614","762591","761041","NA","84614","763592","755565","739185","763596","730774","66606","70022","75469","80658","62266","10096","763596","756069","739439","763600","731028","763600","535670","764749","535566","764849","59469","760797","NA","668357","NA","510236","9646","Hommel2002EXP01","12","9878","12","yes","1024"
"y","no","yes","circle","100","100","819","819","black","no","xpyriment","legacy","red","blue","yellow","green","legacy","0","uniform","1","1","z","1","NA","0","3","NA","NA","0","NA","3","1","76","0","0","0","0","76","76","0","0","76","76","76","76","76","0","0","0","0","0","0","76","76","76","76","76","76","76","76","76","76","0","76","NA","0","NA","3","0","01/05/16 12:07:35","Default description","no","chinese-japanese-korean","no","18","white","開始實驗B","768","legacy","C:/Users/Evonne/Desktop/test/Compatibility/3_Data Collection/RAW/B-2.csv","xpyriment","Interactive Ising","3.0.2","no","0","z","space","space","space","space","/","space","space","z","space","779","1599","23136","3410","5441","5182","3954","4320","779","2737","legacy","0","experiment","1","odd","666747","NA","668357","510235","NA","NA","NA","NA","NA","643577","769000","NA","668347","NA","84614","770767","769221","NA","84614","771767","771771","739185","763596","730774","66606","70022","75469","80658","62266","10096","771771","771775","739439","763600","731028","771776","535670","772561","535566","772661","59469","768999","NA","668357","NA","510236","9646","Hommel2002EXP01","13","10657","13","yes","1024"
"n","no","yes","rect","100","100","810","810","black","no","xpyriment","legacy","green","yellow","red","blue","legacy","0","uniform","1","1","/","1","NA","0","3","NA","NA","0","NA","3","1","77","0","0","0","0","77","77","0","0","77","77","77","77","77","0","0","0","0","0","0","77","77","77","77","77","77","77","77","77","77","0","77","NA","0","NA","3","0","01/05/16 12:07:35","Default description","no","chinese-japanese-korean","no","18","white","開始實驗B","768","legacy","C:/Users/Evonne/Desktop/test/Compatibility/3_Data Collection/RAW/B-2.csv","xpyriment","Interactive Ising","3.0.2","no","0","/","space","space","space","space","/","space","space","/","space","696","1599","23136","3410","5441","5182","3954","4320","696","2737","legacy","250","experiment","1","odd","666747","NA","668357","510235","NA","NA","NA","NA","NA","643577","776755","NA","668347","NA","84614","778453","776905","NA","84614","779453","771771","739185","763596","779457","66606","70022","75469","80658","62266","10096","779707","771775","739439","763600","779711","779711","535670","780413","535566","780513","59469","776754","NA","668357","NA","510236","9646","Hommel2002EXP01","14","11353","14","yes","1024"
"n","no","yes","rect","100","100","811","811","black","no","xpyriment","legacy","red","yellow","blue","green","legacy","0","uniform","1","1","/","1","NA","0","3","NA","NA","0","NA","3","1","78","0","0","0","0","78","78","0","0","78","78","78","78","78","0","0","0","0","0","0","78","78","78","78","78","78","78","78","78","78","0","78","NA","0","NA","3","0","01/05/16 12:07:35","Default description","no","chinese-japanese-korean","no","18","white","開始實驗B","768","legacy","C:/Users/Evonne/Desktop/test/Compatibility/3_Data Collection/RAW/B-2.csv","xpyriment","Interactive Ising","3.0.2","no","0","/","space","space","space","space","/","space","space","/","space","817","1599","23136","3410","5441","5182","3954","4320","817","2737","legacy","0","experiment","1","odd","666747","NA","668357","510235","NA","NA","NA","NA","NA","643577","784811","NA","668347","NA","84614","786656","785152","NA","84614","787656","771771","739185","763596","787661","66606","70022","75469","80658","62266","10096","787661","771775","739439","763600","787665","787665","535670","788489","535566","788590","59469","784811","NA","668357","NA","510236","9646","Hommel2002EXP01","15","12170","15","yes","1024"
"n","no","yes","circle","100","100","804","804","black","no","xpyriment","legacy","yellow","blue","red","green","legacy","0","uniform","1","1","z","1","NA","0","3","NA","NA","0","NA","3","1","79","0","0","0","0","79","79","0","0","79","79","79","79","79","0","0","0","0","0","0","79","79","79","79","79","79","79","79","79","79","0","79","NA","0","NA","3","0","01/05/16 12:07:35","Default description","no","chinese-japanese-korean","no","18","white","開始實驗B","768","legacy","C:/Users/Evonne/Desktop/test/Compatibility/3_Data Collection/RAW/B-2.csv","xpyriment","Interactive Ising","3.0.2","no","0","z","space","space","space","space","/","space","space","z","space","709","1599","23136","3410","5441","5182","3954","4320","709","2737","legacy","250","experiment","1","odd","666747","NA","668357","510235","NA","NA","NA","NA","NA","643577","792778","NA","668347","NA","84614","794460","792914","NA","84614","795460","771771","795464","763596","787661","66606","70022","75469","80658","62266","10096","795714","771775","795718","763600","787665","795718","535670","796433","535566","796533","59469","792778","NA","668357","NA","510236","9646","Hommel2002EXP01","16","12879","16","yes","1024"
"n","no","yes","circle","100","100","802","802","black","no","xpyriment","legacy","yellow","green","red","blue","legacy","0","uniform","1","1","z","1","NA","0","3","NA","NA","0","NA","3","1","80","0","0","0","0","80","80","0","0","80","80","80","80","80","0","0","0","0","0","0","80","80","80","80","80","80","80","80","80","80","0","80","NA","0","NA","3","0","01/05/16 12:07:35","Default description","no","chinese-japanese-korean","no","18","white","開始實驗B","768","legacy","C:/Users/Evonne/Desktop/test/Compatibility/3_Data Collection/RAW/B-2.csv","xpyriment","Interactive Ising","3.0.2","no","0","z","space","space","space","space","/","space","space","z","space","761","1599","23136","3410","5441","5182","3954","4320","761","2737","legacy","500","experiment","1","odd","666747","NA","668357","510235","NA","NA","NA","NA","NA","643577","800279","NA","668347","NA","84614","802073","800526","NA","84614","803074","771771","803078","763596","787661","66606","70022","75469","80658","62266","10096","803578","771775","803582","763600","787665","803582","535670","804349","535566","804449","59469","800278","NA","668357","NA","510236","9646","Hommel2002EXP01","17","13640","17","yes","1024"
"y","no","yes","rect","100","100","808","808","black","no","xpyriment","legacy","blue","red","yellow","green","legacy","0","uniform","1","1","/","1","NA","0","3","NA","NA","0","NA","3","1","81","0","0","0","0","81","81","0","0","81","81","81","81","81","0","0","0","0","0","0","81","81","81","81","81","81","81","81","81","81","0","81","NA","0","NA","3","0","01/05/16 12:07:35","Default description","no","chinese-japanese-korean","no","18","white","開始實驗B","768","legacy","C:/Users/Evonne/Desktop/test/Compatibility/3_Data Collection/RAW/B-2.csv","xpyriment","Interactive Ising","3.0.2","no","0","/","space","space","space","space","/","space","space","/","space","904","1599","23136","3410","5441","5182","3954","4320","904","2737","legacy","0","experiment","1","odd","666747","NA","668357","510235","NA","NA","NA","NA","NA","643577","808546","NA","668347","NA","84614","810381","808831","NA","84614","811382","771771","803078","811386","787661","66606","70022","75469","80658","62266","10096","811387","771775","803582","811391","787665","811391","535670","812301","535566","812401","59469","808545","NA","668357","NA","510236","9646","Hommel2002EXP01","18","14544","18","yes","1024"
