"Compatibility","EXPA","EXPB","Shape","acc","accuracy","average_response_time","avg_rt","background","bidi","canvas_backend","clock_backend","color1","color2","color3","color4","color_backend","compensation","coordinates","correct","correct_Target_response","correct_response","count_Block_EXPERIMENT_A","count_Block_EXPERIMENT_B","count_Block_Parctice_B","count_Block_Practice_A","count_Block_reset_EXPERIMENT_A","count_Block_reset_EXPERIMENT_B","count_Block_reset_Practice_A","count_Block_reset_Practice_B","count_Break","count_Decide_Color","count_EXPERIMENT_A","count_EXPERIMENT_B","count_EXP_A","count_EXP_B","count_Feedback","count_Initial","count_Intertrial","count_Practice_A","count_Practice_B","count_Prepare","count_Prepare_circle_compatible","count_Prepare_circle_incompatible","count_Prepare_rect_compatible","count_Prepare_rect_incompatible","count_Procedure_Ins01","count_Procedure_Ins02","count_Procedure_Ins03","count_Ready","count_Response_Ins","count_Select_Experiment","count_Target","count_Target_circle_compatible","count_Target_circle_incompatible","count_Target_rect_compatible","count_Target_rect_incompatible","count_Target_response","count_Target_response_BadResponse","count_Target_response_Correct","count_Target_response_Wrong","count_Target_response_logger","count_Title","count_Trial","count_Trial_EXPERIMENT_A","count_Trial_EXPERIMENT_B","count_Trial_Practice_A","count_Trial_Practice_B","count_experiment","datetime","description","font_bold","font_family","font_italic","font_size","foreground","form_response","height","keyboard_backend","logfile","mouse_backend","opensesame_codename","opensesame_version","practice","repeat_cycle","response","response_Break","response_Feedback","response_Procedure_Ins01","response_Procedure_Ins02","response_Procedure_Ins03","response_Ready","response_Response_Ins","response_Target_response","response_Title","response_time","response_time_Break","response_time_Feedback","response_time_Procedure_Ins01","response_time_Procedure_Ins02","response_time_Procedure_Ins03","response_time_Ready","response_time_Response_Ins","response_time_Target_response","response_time_Title","sampler_backend","soa","start","subject_nr","subject_parity","time_Block_EXPERIMENT_A","time_Block_EXPERIMENT_B","time_Block_Parctice_B","time_Block_Practice_A","time_Block_reset_EXPERIMENT_A","time_Block_reset_EXPERIMENT_B","time_Block_reset_Practice_A","time_Block_reset_Practice_B","time_Break","time_Decide_Color","time_EXPERIMENT_A","time_EXPERIMENT_B","time_EXP_A","time_EXP_B","time_Feedback","time_Initial","time_Intertrial","time_Practice_A","time_Practice_B","time_Prepare","time_Prepare_circle_compatible","time_Prepare_circle_incompatible","time_Prepare_rect_compatible","time_Prepare_rect_incompatible","time_Procedure_Ins01","time_Procedure_Ins02","time_Procedure_Ins03","time_Ready","time_Response_Ins","time_Select_Experiment","time_Target","time_Target_circle_compatible","time_Target_circle_incompatible","time_Target_rect_compatible","time_Target_rect_incompatible","time_Target_response","time_Target_response_BadResponse","time_Target_response_Correct","time_Target_response_Wrong","time_Target_response_logger","time_Title","time_Trial","time_Trial_EXPERIMENT_A","time_Trial_EXPERIMENT_B","time_Trial_Practice_A","time_Trial_Practice_B","time_experiment","title","total_correct","total_response_time","total_responses","uniform_coordinates","width"
"n","no","yes","circle","0","0","2000","2000","black","no","xpyriment","legacy","blue","red","yellow","green","legacy","0","uniform","0","0","z","NA","NA","0","NA","NA","NA","NA","0","NA","0","0","0","0","0","NA","0","0","0","0","0","0","0","0","0","0","0","0","0","0","0","0","0","0","0","0","0","0","0","0","0","0","0","NA","NA","NA","0","0","12/24/15 15:19:50","Default description","no","chinese-japanese-korean","no","18","white","開始實驗B","768","legacy","F:\TCU\Lecture\Experimental_Psychology\2015Fall\Compatibility\0_preview\quickrun.csv","xpyriment","Interactive Ising","3.0.4","NA","0","None","NA","NA","space","space","space","space","space","None","space","2000","NA","NA","309","269","341","757","405","2000","768","legacy","500","experiment","999","odd","NA","NA","2421176","NA","NA","NA","NA","NA","NA","2421858","NA","NA","NA","2421173","NA","2423483","2421966","NA","2421173","2424483","NA","2424485","NA","NA","2419488","2419800","2420072","2420416","2419080","2417052","2424986","NA","2424988","NA","NA","2424989","2427093","NA","2426991","2427193","2418309","2421858","NA","NA","NA","2421176","2417051","Hommel2002EXP01","0","2000","1","yes","1024"
"y","no","yes","rect","0","0","2000","2000","black","no","xpyriment","legacy","blue","green","red","yellow","legacy","0","uniform","0","0","/","NA","NA","0","NA","NA","NA","NA","0","NA","1","0","0","0","0","NA","1","1","0","0","1","1","1","1","1","0","0","0","0","0","0","1","1","1","1","1","1","1","1","1","1","0","1","NA","NA","NA","0","0","12/24/15 15:19:50","Default description","no","chinese-japanese-korean","no","18","white","開始實驗B","768","legacy","F:\TCU\Lecture\Experimental_Psychology\2015Fall\Compatibility\0_preview\quickrun.csv","xpyriment","Interactive Ising","3.0.4","NA","0","None","NA","NA","space","space","space","space","space","None","space","2000","NA","NA","309","269","341","757","405","2000","768","legacy","0","experiment","999","odd","NA","NA","2421176","NA","NA","NA","NA","NA","NA","2427979","NA","NA","NA","2421173","NA","2429599","2428079","NA","2421173","2430599","NA","2424485","2430655","NA","2419488","2419800","2420072","2420416","2419080","2417052","2430655","NA","2424988","2430661","NA","2430661","2432765","NA","2432663","2432865","2418309","2427979","NA","NA","NA","2421176","2417051","Hommel2002EXP01","0","4000","2","yes","1024"
"y","no","yes","circle","0","0","2000","2000","black","no","xpyriment","legacy","blue","green","red","yellow","legacy","0","uniform","0","0","z","NA","NA","0","NA","NA","NA","NA","0","NA","2","0","0","0","0","NA","2","2","0","0","2","2","2","2","2","0","0","0","0","0","0","2","2","2","2","2","2","2","2","2","2","0","2","NA","NA","NA","0","0","12/24/15 15:19:50","Default description","no","chinese-japanese-korean","no","18","white","開始實驗B","768","legacy","F:\TCU\Lecture\Experimental_Psychology\2015Fall\Compatibility\0_preview\quickrun.csv","xpyriment","Interactive Ising","3.0.4","NA","0","None","NA","NA","space","space","space","space","space","None","space","2000","NA","NA","309","269","341","757","405","2000","768","legacy","500","experiment","999","odd","NA","NA","2421176","NA","NA","NA","NA","NA","NA","2433621","NA","NA","NA","2421173","NA","2435249","2433732","NA","2421173","2436249","2436251","2424485","2430655","NA","2419488","2419800","2420072","2420416","2419080","2417052","2436752","2436755","2424988","2430661","NA","2436755","2438859","NA","2438757","2438959","2418309","2433621","NA","NA","NA","2421176","2417051","Hommel2002EXP01","0","6000","3","yes","1024"
"n","no","yes","circle","0","0","2000","2000","black","no","xpyriment","legacy","blue","red","yellow","green","legacy","0","uniform","0","0","z","NA","NA","0","NA","NA","NA","NA","0","NA","3","0","0","0","0","NA","3","3","0","0","3","3","3","3","3","0","0","0","0","0","0","3","3","3","3","3","3","3","3","3","3","0","3","NA","NA","NA","0","0","12/24/15 15:19:50","Default description","no","chinese-japanese-korean","no","18","white","開始實驗B","768","legacy","F:\TCU\Lecture\Experimental_Psychology\2015Fall\Compatibility\0_preview\quickrun.csv","xpyriment","Interactive Ising","3.0.4","NA","0","None","NA","NA","space","space","space","space","space","None","space","2000","NA","NA","309","269","341","757","405","2000","768","legacy","500","experiment","999","odd","NA","NA","2421176","NA","NA","NA","NA","NA","NA","2439850","NA","NA","NA","2421173","NA","2441480","2439955","NA","2421173","2442481","2436251","2442483","2430655","NA","2419488","2419800","2420072","2420416","2419080","2417052","2442983","2436755","2442985","2430661","NA","2442986","2445090","NA","2444988","2445190","2418309","2439850","NA","NA","NA","2421176","2417051","Hommel2002EXP01","0","8000","4","yes","1024"
"n","no","yes","rect","0","0","2000","2000","black","no","xpyriment","legacy","blue","red","green","yellow","legacy","0","uniform","0","0","/","NA","NA","0","NA","NA","NA","NA","0","NA","4","0","0","0","0","NA","4","4","0","0","4","4","4","4","4","0","0","0","0","0","0","4","4","4","4","4","4","4","4","4","4","0","4","NA","NA","NA","0","0","12/24/15 15:19:50","Default description","no","chinese-japanese-korean","no","18","white","開始實驗B","768","legacy","F:\TCU\Lecture\Experimental_Psychology\2015Fall\Compatibility\0_preview\quickrun.csv","xpyriment","Interactive Ising","3.0.4","NA","0","None","NA","NA","space","space","space","space","space","None","space","2000","NA","NA","309","269","341","757","405","2000","768","legacy","500","experiment","999","odd","NA","NA","2421176","NA","NA","NA","NA","NA","NA","2445928","NA","NA","NA","2421173","NA","2447542","2446033","NA","2421173","2448542","2436251","2442483","2430655","2448544","2419488","2419800","2420072","2420416","2419080","2417052","2449045","2436755","2442985","2430661","2449047","2449048","2451152","NA","2451050","2451252","2418309","2445928","NA","NA","NA","2421176","2417051","Hommel2002EXP01","0","10000","5","yes","1024"
"y","no","yes","rect","0","0","2000","2000","black","no","xpyriment","legacy","blue","red","green","yellow","legacy","0","uniform","0","0","/","NA","NA","0","NA","NA","NA","NA","0","NA","5","0","0","0","0","NA","5","5","0","0","5","5","5","5","5","0","0","0","0","0","0","5","5","5","5","5","5","5","5","5","5","0","5","NA","NA","NA","0","0","12/24/15 15:19:50","Default description","no","chinese-japanese-korean","no","18","white","開始實驗B","768","legacy","F:\TCU\Lecture\Experimental_Psychology\2015Fall\Compatibility\0_preview\quickrun.csv","xpyriment","Interactive Ising","3.0.4","NA","0","None","NA","NA","space","space","space","space","space","None","space","2000","NA","NA","309","269","341","757","405","2000","768","legacy","500","experiment","999","odd","NA","NA","2421176","NA","NA","NA","NA","NA","NA","2451985","NA","NA","NA","2421173","NA","2453604","2452086","NA","2421173","2454605","2436251","2442483","2454607","2448544","2419488","2419800","2420072","2420416","2419080","2417052","2455108","2436755","2442985","2455110","2449047","2455111","2457215","NA","2457113","2457315","2418309","2451984","NA","NA","NA","2421176","2417051","Hommel2002EXP01","0","12000","6","yes","1024"
"y","no","yes","rect","0","0","2000","2000","black","no","xpyriment","legacy","yellow","blue","green","red","legacy","0","uniform","0","0","/","NA","NA","0","NA","NA","NA","NA","0","NA","6","0","0","0","0","NA","6","6","0","0","6","6","6","6","6","0","0","0","0","0","0","6","6","6","6","6","6","6","6","6","6","0","6","NA","NA","NA","0","0","12/24/15 15:19:50","Default description","no","chinese-japanese-korean","no","18","white","開始實驗B","768","legacy","F:\TCU\Lecture\Experimental_Psychology\2015Fall\Compatibility\0_preview\quickrun.csv","xpyriment","Interactive Ising","3.0.4","NA","0","None","NA","NA","space","space","space","space","space","None","space","2000","NA","NA","309","269","341","757","405","2000","768","legacy","500","experiment","999","odd","NA","NA","2421176","NA","NA","NA","NA","NA","NA","2458048","NA","NA","NA","2421173","NA","2459668","2458151","NA","2421173","2460668","2436251","2442483","2460670","2448544","2419488","2419800","2420072","2420416","2419080","2417052","2461171","2436755","2442985","2461173","2449047","2461174","2463278","NA","2463176","2463378","2418309","2458048","NA","NA","NA","2421176","2417051","Hommel2002EXP01","0","14000","7","yes","1024"
"y","no","yes","rect","0","0","2000","2000","black","no","xpyriment","legacy","blue","green","red","yellow","legacy","0","uniform","0","0","/","NA","NA","0","NA","NA","NA","NA","0","NA","7","0","0","0","0","NA","7","7","0","0","7","7","7","7","7","0","0","0","0","0","0","7","7","7","7","7","7","7","7","7","7","0","7","NA","NA","NA","0","0","12/24/15 15:19:50","Default description","no","chinese-japanese-korean","no","18","white","開始實驗B","768","legacy","F:\TCU\Lecture\Experimental_Psychology\2015Fall\Compatibility\0_preview\quickrun.csv","xpyriment","Interactive Ising","3.0.4","NA","0","None","NA","NA","space","space","space","space","space","None","space","2000","NA","NA","309","269","341","757","405","2000","768","legacy","0","experiment","999","odd","NA","NA","2421176","NA","NA","NA","NA","NA","NA","2464102","NA","NA","NA","2421173","NA","2465719","2464202","NA","2421173","2466719","2436251","2442483","2466722","2448544","2419488","2419800","2420072","2420416","2419080","2417052","2466722","2436755","2442985","2466726","2449047","2466726","2468830","NA","2468728","2468930","2418309","2464102","NA","NA","NA","2421176","2417051","Hommel2002EXP01","0","16000","8","yes","1024"
"n","no","yes","circle","0","0","2000","2000","black","no","xpyriment","legacy","yellow","green","red","blue","legacy","0","uniform","0","0","z","NA","NA","0","NA","NA","NA","NA","0","NA","8","0","0","0","0","NA","8","8","0","0","8","8","8","8","8","0","0","0","0","0","0","8","8","8","8","8","8","8","8","8","8","0","8","NA","NA","NA","0","0","12/24/15 15:19:50","Default description","no","chinese-japanese-korean","no","18","white","開始實驗B","768","legacy","F:\TCU\Lecture\Experimental_Psychology\2015Fall\Compatibility\0_preview\quickrun.csv","xpyriment","Interactive Ising","3.0.4","NA","0","None","NA","NA","space","space","space","space","space","None","space","2000","NA","NA","309","269","341","757","405","2000","768","legacy","0","experiment","999","odd","NA","NA","2421176","NA","NA","NA","NA","NA","NA","2469721","NA","NA","NA","2421173","NA","2471349","2469845","NA","2421173","2472349","2436251","2472351","2466722","2448544","2419488","2419800","2420072","2420416","2419080","2417052","2472351","2436755","2472353","2466726","2449047","2472354","2474459","NA","2474357","2474559","2418309","2469721","NA","NA","NA","2421176","2417051","Hommel2002EXP01","0","18000","9","yes","1024"
"n","no","yes","rect","0","0","2000","2000","black","no","xpyriment","legacy","red","blue","green","yellow","legacy","0","uniform","0","0","/","NA","NA","0","NA","NA","NA","NA","0","NA","9","0","0","0","0","NA","9","9","0","0","9","9","9","9","9","0","0","0","0","0","0","9","9","9","9","9","9","9","9","9","9","0","9","NA","NA","NA","0","0","12/24/15 15:19:50","Default description","no","chinese-japanese-korean","no","18","white","開始實驗B","768","legacy","F:\TCU\Lecture\Experimental_Psychology\2015Fall\Compatibility\0_preview\quickrun.csv","xpyriment","Interactive Ising","3.0.4","NA","0","None","NA","NA","space","space","space","space","space","None","space","2000","NA","NA","309","269","341","757","405","2000","768","legacy","0","experiment","999","odd","NA","NA","2421176","NA","NA","NA","NA","NA","NA","2475353","NA","NA","NA","2421173","NA","2481959","2475444","NA","2421173","2482960","2436251","2472351","2466722","2482968","2419488","2419800","2420072","2420416","2419080","2417052","2482968","2436755","2472353","2466726","2482971","2482971","2485075","NA","2484973","2485175","2418309","2475353","NA","NA","NA","2421176","2417051","Hommel2002EXP01","0","20000","10","yes","1024"
"n","no","yes","rect","0","0","2000","2000","black","no","xpyriment","legacy","green","red","yellow","blue","legacy","0","uniform","0","0","/","NA","NA","0","NA","NA","NA","NA","0","NA","10","0","0","0","0","NA","10","10","0","0","10","10","10","10","10","0","0","0","0","0","0","10","10","10","10","10","10","10","10","10","10","0","10","NA","NA","NA","0","0","12/24/15 15:19:50","Default description","no","chinese-japanese-korean","no","18","white","開始實驗B","768","legacy","F:\TCU\Lecture\Experimental_Psychology\2015Fall\Compatibility\0_preview\quickrun.csv","xpyriment","Interactive Ising","3.0.4","NA","0","None","NA","NA","space","space","space","space","space","None","space","2001","NA","NA","309","269","341","757","405","2001","768","legacy","0","experiment","999","odd","NA","NA","2421176","NA","NA","NA","NA","NA","NA","2485926","NA","NA","NA","2421173","NA","2487545","2486029","NA","2421173","2488546","2436251","2472351","2466722","2488548","2419488","2419800","2420072","2420416","2419080","2417052","2488549","2436755","2472353","2466726","2488551","2488551","2490656","NA","2490554","2490756","2418309","2485926","NA","NA","NA","2421176","2417051","Hommel2002EXP01","0","22001","11","yes","1024"
"y","no","yes","circle","0","0","2000","2000","black","no","xpyriment","legacy","green","red","blue","yellow","legacy","0","uniform","0","0","z","NA","NA","0","NA","NA","NA","NA","0","NA","11","0","0","0","0","NA","11","11","0","0","11","11","11","11","11","0","0","0","0","0","0","11","11","11","11","11","11","11","11","11","11","0","11","NA","NA","NA","0","0","12/24/15 15:19:50","Default description","no","chinese-japanese-korean","no","18","white","開始實驗B","768","legacy","F:\TCU\Lecture\Experimental_Psychology\2015Fall\Compatibility\0_preview\quickrun.csv","xpyriment","Interactive Ising","3.0.4","NA","0","None","NA","NA","space","space","space","space","space","None","space","2001","NA","NA","309","269","341","757","405","2001","768","legacy","0","experiment","999","odd","NA","NA","2421176","NA","NA","NA","NA","NA","NA","2491452","NA","NA","NA","2421173","NA","2493071","2491555","NA","2421173","2494071","2494073","2472351","2466722","2488548","2419488","2419800","2420072","2420416","2419080","2417052","2494074","2494076","2472353","2466726","2488551","2494076","2496181","NA","2496079","2496281","2418309","2491452","NA","NA","NA","2421176","2417051","Hommel2002EXP01","0","24002","12","yes","1024"
"y","no","yes","circle","0","0","2000","2000","black","no","xpyriment","legacy","green","red","blue","yellow","legacy","0","uniform","0","0","z","NA","NA","0","NA","NA","NA","NA","0","NA","12","0","0","0","0","NA","12","12","0","0","12","12","12","12","12","0","0","0","0","0","0","12","12","12","12","12","12","12","12","12","12","0","12","NA","NA","NA","0","0","12/24/15 15:19:50","Default description","no","chinese-japanese-korean","no","18","white","開始實驗B","768","legacy","F:\TCU\Lecture\Experimental_Psychology\2015Fall\Compatibility\0_preview\quickrun.csv","xpyriment","Interactive Ising","3.0.4","NA","0","None","NA","NA","space","space","space","space","space","None","space","2000","NA","NA","309","269","341","757","405","2000","768","legacy","500","experiment","999","odd","NA","NA","2421176","NA","NA","NA","NA","NA","NA","2497016","NA","NA","NA","2421173","NA","2498639","2497120","NA","2421173","2499640","2499642","2472351","2466722","2488548","2419488","2419800","2420072","2420416","2419080","2417052","2500143","2500146","2472353","2466726","2488551","2500146","2502250","NA","2502148","2502350","2418309","2497016","NA","NA","NA","2421176","2417051","Hommel2002EXP01","0","26002","13","yes","1024"
"n","no","yes","rect","0","0","2000","2000","black","no","xpyriment","legacy","red","yellow","green","blue","legacy","0","uniform","0","0","/","NA","NA","0","NA","NA","NA","NA","0","NA","13","0","0","0","0","NA","13","13","0","0","13","13","13","13","13","0","0","0","0","0","0","13","13","13","13","13","13","13","13","13","13","0","13","NA","NA","NA","0","0","12/24/15 15:19:50","Default description","no","chinese-japanese-korean","no","18","white","開始實驗B","768","legacy","F:\TCU\Lecture\Experimental_Psychology\2015Fall\Compatibility\0_preview\quickrun.csv","xpyriment","Interactive Ising","3.0.4","NA","0","None","NA","NA","space","space","space","space","space","None","space","2000","NA","NA","309","269","341","757","405","2000","768","legacy","500","experiment","999","odd","NA","NA","2421176","NA","NA","NA","NA","NA","NA","2503076","NA","NA","NA","2421173","NA","2504692","2503176","NA","2421173","2505692","2499642","2472351","2466722","2505694","2419488","2419800","2420072","2420416","2419080","2417052","2506195","2500146","2472353","2466726","2506198","2506198","2508302","NA","2508200","2508402","2418309","2503076","NA","NA","NA","2421176","2417051","Hommel2002EXP01","0","28002","14","yes","1024"
"n","no","yes","circle","0","0","2000","2000","black","no","xpyriment","legacy","blue","red","yellow","green","legacy","0","uniform","0","0","z","NA","NA","0","NA","NA","NA","NA","0","NA","14","0","0","0","0","NA","14","14","0","0","14","14","14","14","14","0","0","0","0","0","0","14","14","14","14","14","14","14","14","14","14","0","14","NA","NA","NA","0","0","12/24/15 15:19:50","Default description","no","chinese-japanese-korean","no","18","white","開始實驗B","768","legacy","F:\TCU\Lecture\Experimental_Psychology\2015Fall\Compatibility\0_preview\quickrun.csv","xpyriment","Interactive Ising","3.0.4","NA","0","None","NA","NA","space","space","space","space","space","None","space","2001","NA","NA","309","269","341","757","405","2001","768","legacy","0","experiment","999","odd","NA","NA","2421176","NA","NA","NA","NA","NA","NA","2509164","NA","NA","NA","2421173","NA","2510810","2509308","NA","2421173","2511810","2499642","2511812","2466722","2505694","2419488","2419800","2420072","2420416","2419080","2417052","2511813","2500146","2511815","2466726","2506198","2511815","2513920","NA","2513818","2514020","2418309","2509164","NA","NA","NA","2421176","2417051","Hommel2002EXP01","0","30003","15","yes","1024"
"y","no","yes","circle","0","0","2000","2000","black","no","xpyriment","legacy","red","green","yellow","blue","legacy","0","uniform","0","0","z","NA","NA","0","NA","NA","NA","NA","0","NA","15","0","0","0","0","NA","15","15","0","0","15","15","15","15","15","0","0","0","0","0","0","15","15","15","15","15","15","15","15","15","15","0","15","NA","NA","NA","0","0","12/24/15 15:19:50","Default description","no","chinese-japanese-korean","no","18","white","開始實驗B","768","legacy","F:\TCU\Lecture\Experimental_Psychology\2015Fall\Compatibility\0_preview\quickrun.csv","xpyriment","Interactive Ising","3.0.4","NA","0","None","NA","NA","space","space","space","space","space","None","space","2001","NA","NA","309","269","341","757","405","2001","768","legacy","0","experiment","999","odd","NA","NA","2421176","NA","NA","NA","NA","NA","NA","2514758","NA","NA","NA","2421173","NA","2516381","2514863","NA","2421173","2517381","2517383","2511812","2466722","2505694","2419488","2419800","2420072","2420416","2419080","2417052","2517384","2517386","2511815","2466726","2506198","2517386","2519491","NA","2519389","2519591","2418309","2514758","NA","NA","NA","2421176","2417051","Hommel2002EXP01","0","32004","16","yes","1024"
"y","no","yes","rect","0","0","2001","2001","black","no","xpyriment","legacy","red","blue","yellow","green","legacy","0","uniform","0","0","/","NA","NA","1","NA","NA","NA","NA","1","NA","16","0","0","0","0","NA","16","16","0","0","16","16","16","16","16","0","0","0","0","0","0","16","16","16","16","16","16","16","16","16","16","0","16","NA","NA","NA","1","0","12/24/15 15:19:50","Default description","no","chinese-japanese-korean","no","18","white","開始實驗B","768","legacy","F:\TCU\Lecture\Experimental_Psychology\2015Fall\Compatibility\0_preview\quickrun.csv","xpyriment","Interactive Ising","3.0.4","","0","None","NA","NA","space","space","space","space","space","None","space","2001","NA","NA","309","269","341","757","405","2001","768","legacy","0","experiment","999","odd","NA","NA","2519633","NA","NA","NA","NA","NA","NA","2520363","NA","NA","NA","2421173","NA","2521946","2520428","NA","2421173","2522947","2517383","2511812","2522950","2505694","2419488","2419800","2420072","2420416","2419080","2417052","2522950","2517386","2511815","2522952","2506198","2522952","2525057","NA","2524955","2525157","2418309","2520363","NA","NA","NA","2519633","2417051","Hommel2002EXP01","0","2001","1","yes","1024"
"n","no","yes","rect","0","0","2000","2000","black","no","xpyriment","legacy","yellow","green","red","blue","legacy","0","uniform","0","0","/","NA","NA","1","NA","NA","NA","NA","1","NA","17","0","0","0","0","NA","17","17","0","0","17","17","17","17","17","0","0","0","0","0","0","17","17","17","17","17","17","17","17","17","17","0","17","NA","NA","NA","1","0","12/24/15 15:19:50","Default description","no","chinese-japanese-korean","no","18","white","開始實驗B","768","legacy","F:\TCU\Lecture\Experimental_Psychology\2015Fall\Compatibility\0_preview\quickrun.csv","xpyriment","Interactive Ising","3.0.4","","0","None","NA","NA","space","space","space","space","space","None","space","2000","NA","NA","309","269","341","757","405","2000","768","legacy","500","experiment","999","odd","NA","NA","2519633","NA","NA","NA","NA","NA","NA","2525893","NA","NA","NA","2421173","NA","2527510","2525994","NA","2421173","2528510","2517383","2511812","2522950","2528512","2419488","2419800","2420072","2420416","2419080","2417052","2529012","2517386","2511815","2522952","2529015","2529015","2531119","NA","2531017","2531219","2418309","2525893","NA","NA","NA","2519633","2417051","Hommel2002EXP01","0","4001","2","yes","1024"
"n","no","yes","circle","0","0","2000","2000","black","no","xpyriment","legacy","green","red","yellow","blue","legacy","0","uniform","0","0","z","NA","NA","1","NA","NA","NA","NA","1","NA","18","0","0","0","0","NA","18","18","0","0","18","18","18","18","18","0","0","0","0","0","0","18","18","18","18","18","18","18","18","18","18","0","18","NA","NA","NA","1","0","12/24/15 15:19:50","Default description","no","chinese-japanese-korean","no","18","white","開始實驗B","768","legacy","F:\TCU\Lecture\Experimental_Psychology\2015Fall\Compatibility\0_preview\quickrun.csv","xpyriment","Interactive Ising","3.0.4","","0","None","NA","NA","space","space","space","space","space","None","space","2000","NA","NA","309","269","341","757","405","2000","768","legacy","500","experiment","999","odd","NA","NA","2519633","NA","NA","NA","NA","NA","NA","2531959","NA","NA","NA","2421173","NA","2533571","2532059","NA","2421173","2534571","2517383","2534573","2522950","2528512","2419488","2419800","2420072","2420416","2419080","2417052","2535073","2517386","2535080","2522952","2529015","2535080","2537184","NA","2537082","2537284","2418309","2531959","NA","NA","NA","2519633","2417051","Hommel2002EXP01","0","6001","3","yes","1024"
"n","no","yes","circle","0","0","2000","2000","black","no","xpyriment","legacy","red","yellow","green","blue","legacy","0","uniform","0","0","z","NA","NA","1","NA","NA","NA","NA","1","NA","19","0","0","0","0","NA","19","19","0","0","19","19","19","19","19","0","0","0","0","0","0","19","19","19","19","19","19","19","19","19","19","0","19","NA","NA","NA","1","0","12/24/15 15:19:50","Default description","no","chinese-japanese-korean","no","18","white","開始實驗B","768","legacy","F:\TCU\Lecture\Experimental_Psychology\2015Fall\Compatibility\0_preview\quickrun.csv","xpyriment","Interactive Ising","3.0.4","","0","None","NA","NA","space","space","space","space","space","None","space","2000","NA","NA","309","269","341","757","405","2000","768","legacy","0","experiment","999","odd","NA","NA","2519633","NA","NA","NA","NA","NA","NA","2538028","NA","NA","NA","2421173","NA","2539655","2538145","NA","2421173","2540656","2517383","2540659","2522950","2528512","2419488","2419800","2420072","2420416","2419080","2417052","2540659","2517386","2540661","2522952","2529015","2540661","2542765","NA","2542663","2542865","2418309","2538028","NA","NA","NA","2519633","2417051","Hommel2002EXP01","0","8001","4","yes","1024"
"y","no","yes","circle","0","0","2000","2000","black","no","xpyriment","legacy","green","yellow","blue","red","legacy","0","uniform","0","0","z","NA","NA","1","NA","NA","NA","NA","1","NA","20","0","0","0","0","NA","20","20","0","0","20","20","20","20","20","0","0","0","0","0","0","20","20","20","20","20","20","20","20","20","20","0","20","NA","NA","NA","1","0","12/24/15 15:19:50","Default description","no","chinese-japanese-korean","no","18","white","開始實驗B","768","legacy","F:\TCU\Lecture\Experimental_Psychology\2015Fall\Compatibility\0_preview\quickrun.csv","xpyriment","Interactive Ising","3.0.4","","0","None","NA","NA","space","space","space","space","space","None","space","2000","NA","NA","309","269","341","757","405","2000","768","legacy","500","experiment","999","odd","NA","NA","2519633","NA","NA","NA","NA","NA","NA","2543637","NA","NA","NA","2421173","NA","2545271","2543768","NA","2421173","2546271","2546273","2540659","2522950","2528512","2419488","2419800","2420072","2420416","2419080","2417052","2546773","2546775","2540661","2522952","2529015","2546776","2548880","NA","2548778","2548980","2418309","2543637","NA","NA","NA","2519633","2417051","Hommel2002EXP01","0","10001","5","yes","1024"
"n","no","yes","rect","0","0","2000","2000","black","no","xpyriment","legacy","red","green","yellow","blue","legacy","0","uniform","0","0","/","NA","NA","1","NA","NA","NA","NA","1","NA","21","0","0","0","0","NA","21","21","0","0","21","21","21","21","21","0","0","0","0","0","0","21","21","21","21","21","21","21","21","21","21","0","21","NA","NA","NA","1","0","12/24/15 15:19:50","Default description","no","chinese-japanese-korean","no","18","white","開始實驗B","768","legacy","F:\TCU\Lecture\Experimental_Psychology\2015Fall\Compatibility\0_preview\quickrun.csv","xpyriment","Interactive Ising","3.0.4","","0","None","NA","NA","space","space","space","space","space","None","space","2000","NA","NA","309","269","341","757","405","2000","768","legacy","500","experiment","999","odd","NA","NA","2519633","NA","NA","NA","NA","NA","NA","2549725","NA","NA","NA","2421173","NA","2551343","2549822","NA","2421173","2552344","2546273","2540659","2522950","2552346","2419488","2419800","2420072","2420416","2419080","2417052","2552847","2546775","2540661","2522952","2552849","2552850","2554954","NA","2554852","2555054","2418309","2549725","NA","NA","NA","2519633","2417051","Hommel2002EXP01","0","12001","6","yes","1024"
"y","no","yes","rect","0","0","2000","2000","black","no","xpyriment","legacy","green","red","yellow","blue","legacy","0","uniform","0","0","/","NA","NA","1","NA","NA","NA","NA","1","NA","22","0","0","0","0","NA","22","22","0","0","22","22","22","22","22","0","0","0","0","0","0","22","22","22","22","22","22","22","22","22","22","0","22","NA","NA","NA","1","0","12/24/15 15:19:50","Default description","no","chinese-japanese-korean","no","18","white","開始實驗B","768","legacy","F:\TCU\Lecture\Experimental_Psychology\2015Fall\Compatibility\0_preview\quickrun.csv","xpyriment","Interactive Ising","3.0.4","","0","None","NA","NA","space","space","space","space","space","None","space","2001","NA","NA","309","269","341","757","405","2001","768","legacy","0","experiment","999","odd","NA","NA","2519633","NA","NA","NA","NA","NA","NA","2555829","NA","NA","NA","2421173","NA","2557426","2555908","NA","2421173","2558426","2546273","2540659","2558428","2552346","2419488","2419800","2420072","2420416","2419080","2417052","2558429","2546775","2540661","2558431","2552849","2558431","2560536","NA","2560434","2560636","2418309","2555828","NA","NA","NA","2519633","2417051","Hommel2002EXP01","0","14002","7","yes","1024"
"n","no","yes","circle","0","0","2000","2000","black","no","xpyriment","legacy","green","red","yellow","blue","legacy","0","uniform","0","0","z","NA","NA","1","NA","NA","NA","NA","1","NA","23","0","0","0","0","NA","23","23","0","0","23","23","23","23","23","0","0","0","0","0","0","23","23","23","23","23","23","23","23","23","23","0","23","NA","NA","NA","1","0","12/24/15 15:19:50","Default description","no","chinese-japanese-korean","no","18","white","開始實驗B","768","legacy","F:\TCU\Lecture\Experimental_Psychology\2015Fall\Compatibility\0_preview\quickrun.csv","xpyriment","Interactive Ising","3.0.4","","0","None","NA","NA","space","space","space","space","space","None","space","2000","NA","NA","309","269","341","757","405","2000","768","legacy","0","experiment","999","odd","NA","NA","2519633","NA","NA","NA","NA","NA","NA","2561375","NA","NA","NA","2421173","NA","2562998","2561481","NA","2421173","2563998","2546273","2564000","2558428","2552346","2419488","2419800","2420072","2420416","2419080","2417052","2564001","2546775","2564003","2558431","2552849","2564004","2566108","NA","2566006","2566208","2418309","2561375","NA","NA","NA","2519633","2417051","Hommel2002EXP01","0","16002","8","yes","1024"
"y","no","yes","circle","0","0","2000","2000","black","no","xpyriment","legacy","yellow","red","blue","green","legacy","0","uniform","0","0","z","NA","NA","1","NA","NA","NA","NA","1","NA","24","0","0","0","0","NA","24","24","0","0","24","24","24","24","24","0","0","0","0","0","0","24","24","24","24","24","24","24","24","24","24","0","24","NA","NA","NA","1","0","12/24/15 15:19:50","Default description","no","chinese-japanese-korean","no","18","white","開始實驗B","768","legacy","F:\TCU\Lecture\Experimental_Psychology\2015Fall\Compatibility\0_preview\quickrun.csv","xpyriment","Interactive Ising","3.0.4","","0","None","NA","NA","space","space","space","space","space","None","space","2000","NA","NA","309","269","341","757","405","2000","768","legacy","500","experiment","999","odd","NA","NA","2519633","NA","NA","NA","NA","NA","NA","2566938","NA","NA","NA","2421173","NA","2568557","2567041","NA","2421173","2569558","2569560","2564000","2558428","2552346","2419488","2419800","2420072","2420416","2419080","2417052","2570061","2570063","2564003","2558431","2552849","2570064","2572168","NA","2572066","2572268","2418309","2566938","NA","NA","NA","2519633","2417051","Hommel2002EXP01","0","18002","9","yes","1024"
"n","no","yes","circle","0","0","2000","2000","black","no","xpyriment","legacy","red","yellow","green","blue","legacy","0","uniform","0","0","z","NA","NA","1","NA","NA","NA","NA","1","NA","25","0","0","0","0","NA","25","25","0","0","25","25","25","25","25","0","0","0","0","0","0","25","25","25","25","25","25","25","25","25","25","0","25","NA","NA","NA","1","0","12/24/15 15:19:50","Default description","no","chinese-japanese-korean","no","18","white","開始實驗B","768","legacy","F:\TCU\Lecture\Experimental_Psychology\2015Fall\Compatibility\0_preview\quickrun.csv","xpyriment","Interactive Ising","3.0.4","","0","None","NA","NA","space","space","space","space","space","None","space","2000","NA","NA","309","269","341","757","405","2000","768","legacy","500","experiment","999","odd","NA","NA","2519633","NA","NA","NA","NA","NA","NA","2572999","NA","NA","NA","2421173","NA","2574626","2573108","NA","2421173","2575627","2569560","2575629","2558428","2552346","2419488","2419800","2420072","2420416","2419080","2417052","2576129","2570063","2576132","2558431","2552849","2576132","2578236","NA","2578134","2578336","2418309","2572999","NA","NA","NA","2519633","2417051","Hommel2002EXP01","0","20002","10","yes","1024"
"n","no","yes","rect","0","0","2000","2000","black","no","xpyriment","legacy","blue","yellow","red","green","legacy","0","uniform","0","0","/","NA","NA","1","NA","NA","NA","NA","1","NA","26","0","0","0","0","NA","26","26","0","0","26","26","26","26","26","0","0","0","0","0","0","26","26","26","26","26","26","26","26","26","26","0","26","NA","NA","NA","1","0","12/24/15 15:19:50","Default description","no","chinese-japanese-korean","no","18","white","開始實驗B","768","legacy","F:\TCU\Lecture\Experimental_Psychology\2015Fall\Compatibility\0_preview\quickrun.csv","xpyriment","Interactive Ising","3.0.4","","0","None","NA","NA","space","space","space","space","space","None","space","2001","NA","NA","309","269","341","757","405","2001","768","legacy","0","experiment","999","odd","NA","NA","2519633","NA","NA","NA","NA","NA","NA","2579066","NA","NA","NA","2421173","NA","2580688","2579171","NA","2421173","2581688","2569560","2575629","2558428","2581690","2419488","2419800","2420072","2420416","2419080","2417052","2581691","2570063","2576132","2558431","2581693","2581693","2583798","NA","2583696","2583898","2418309","2579066","NA","NA","NA","2519633","2417051","Hommel2002EXP01","0","22003","11","yes","1024"
"y","no","yes","circle","0","0","2000","2000","black","no","xpyriment","legacy","green","yellow","red","blue","legacy","0","uniform","0","0","z","NA","NA","1","NA","NA","NA","NA","1","NA","27","0","0","0","0","NA","27","27","0","0","27","27","27","27","27","0","0","0","0","0","0","27","27","27","27","27","27","27","27","27","27","0","27","NA","NA","NA","1","0","12/24/15 15:19:50","Default description","no","chinese-japanese-korean","no","18","white","開始實驗B","768","legacy","F:\TCU\Lecture\Experimental_Psychology\2015Fall\Compatibility\0_preview\quickrun.csv","xpyriment","Interactive Ising","3.0.4","","0","None","NA","NA","space","space","space","space","space","None","space","2000","NA","NA","309","269","341","757","405","2000","768","legacy","0","experiment","999","odd","NA","NA","2519633","NA","NA","NA","NA","NA","NA","2584685","NA","NA","NA","2421173","NA","2586310","2584808","NA","2421173","2587310","2587313","2575629","2558428","2581690","2419488","2419800","2420072","2420416","2419080","2417052","2587313","2587316","2576132","2558431","2581693","2587316","2589420","NA","2589318","2589520","2418309","2584684","NA","NA","NA","2519633","2417051","Hommel2002EXP01","0","24003","12","yes","1024"
"y","no","yes","rect","0","0","2000","2000","black","no","xpyriment","legacy","blue","yellow","green","red","legacy","0","uniform","0","0","/","NA","NA","1","NA","NA","NA","NA","1","NA","28","0","0","0","0","NA","28","28","0","0","28","28","28","28","28","0","0","0","0","0","0","28","28","28","28","28","28","28","28","28","28","0","28","NA","NA","NA","1","0","12/24/15 15:19:50","Default description","no","chinese-japanese-korean","no","18","white","開始實驗B","768","legacy","F:\TCU\Lecture\Experimental_Psychology\2015Fall\Compatibility\0_preview\quickrun.csv","xpyriment","Interactive Ising","3.0.4","","0","None","NA","NA","space","space","space","space","space","None","space","2000","NA","NA","309","269","341","757","405","2000","768","legacy","500","experiment","999","odd","NA","NA","2519633","NA","NA","NA","NA","NA","NA","2590296","NA","NA","NA","2421173","NA","2591874","2590358","NA","2421173","2592875","2587313","2575629","2592877","2581690","2419488","2419800","2420072","2420416","2419080","2417052","2593378","2587316","2576132","2593380","2581693","2593380","2595484","NA","2595382","2595584","2418309","2590296","NA","NA","NA","2519633","2417051","Hommel2002EXP01","0","26003","13","yes","1024"
"n","no","yes","rect","0","0","2000","2000","black","no","xpyriment","legacy","yellow","blue","green","red","legacy","0","uniform","0","0","/","NA","NA","1","NA","NA","NA","NA","1","NA","29","0","0","0","0","NA","29","29","0","0","29","29","29","29","29","0","0","0","0","0","0","29","29","29","29","29","29","29","29","29","29","0","29","NA","NA","NA","1","0","12/24/15 15:19:50","Default description","no","chinese-japanese-korean","no","18","white","開始實驗B","768","legacy","F:\TCU\Lecture\Experimental_Psychology\2015Fall\Compatibility\0_preview\quickrun.csv","xpyriment","Interactive Ising","3.0.4","","0","None","NA","NA","space","space","space","space","space","None","space","2000","NA","NA","309","269","341","757","405","2000","768","legacy","0","experiment","999","odd","NA","NA","2519633","NA","NA","NA","NA","NA","NA","2596380","NA","NA","NA","2421173","NA","2598000","2596485","NA","2421173","2599000","2587313","2575629","2592877","2599002","2419488","2419800","2420072","2420416","2419080","2417052","2599003","2587316","2576132","2593380","2599005","2599006","2601110","NA","2601008","2601210","2418309","2596380","NA","NA","NA","2519633","2417051","Hommel2002EXP01","0","28003","14","yes","1024"
"y","no","yes","circle","0","0","2000","2000","black","no","xpyriment","legacy","red","blue","green","yellow","legacy","0","uniform","0","0","z","NA","NA","1","NA","NA","NA","NA","1","NA","30","0","0","0","0","NA","30","30","0","0","30","30","30","30","30","0","0","0","0","0","0","30","30","30","30","30","30","30","30","30","30","0","30","NA","NA","NA","1","0","12/24/15 15:19:50","Default description","no","chinese-japanese-korean","no","18","white","開始實驗B","768","legacy","F:\TCU\Lecture\Experimental_Psychology\2015Fall\Compatibility\0_preview\quickrun.csv","xpyriment","Interactive Ising","3.0.4","","0","None","NA","NA","space","space","space","space","space","None","space","2000","NA","NA","309","269","341","757","405","2000","768","legacy","0","experiment","999","odd","NA","NA","2519633","NA","NA","NA","NA","NA","NA","2601964","NA","NA","NA","2421173","NA","2603593","2602074","NA","2421173","2604593","2604595","2575629","2592877","2599002","2419488","2419800","2420072","2420416","2419080","2417052","2604596","2604598","2576132","2593380","2599005","2604599","2606704","NA","2606601","2606804","2418309","2601964","NA","NA","NA","2519633","2417051","Hommel2002EXP01","0","30003","15","yes","1024"
"y","no","yes","rect","0","0","2000","2000","black","no","xpyriment","legacy","yellow","red","green","blue","legacy","0","uniform","0","0","/","NA","NA","1","NA","NA","NA","NA","1","NA","31","0","0","0","0","NA","31","31","0","0","31","31","31","31","31","0","0","0","0","0","0","31","31","31","31","31","31","31","31","31","31","0","31","NA","NA","NA","1","0","12/24/15 15:19:50","Default description","no","chinese-japanese-korean","no","18","white","開始實驗B","768","legacy","F:\TCU\Lecture\Experimental_Psychology\2015Fall\Compatibility\0_preview\quickrun.csv","xpyriment","Interactive Ising","3.0.4","","0","None","NA","NA","space","space","space","space","space","None","space","2000","NA","NA","309","269","341","757","405","2000","768","legacy","500","experiment","999","odd","NA","NA","2519633","NA","NA","NA","NA","NA","NA","2607559","NA","NA","NA","2421173","NA","2609177","2607665","NA","2421173","2610177","2604595","2575629","2610180","2599002","2419488","2419800","2420072","2420416","2419080","2417052","2610680","2604598","2576132","2610682","2599005","2610682","2612787","NA","2612684","2612887","2418309","2607558","NA","NA","NA","2519633","2417051","Hommel2002EXP01","0","32003","16","yes","1024"
"n","no","yes","rect","0","0","2000","2000","black","no","xpyriment","legacy","red","green","blue","yellow","legacy","0","uniform","0","0","/","NA","NA","2","NA","NA","NA","NA","2","0","32","0","0","0","0","NA","32","32","0","0","32","32","32","32","32","0","0","0","0","0","0","32","32","32","32","32","32","32","32","32","32","0","32","NA","NA","NA","2","0","12/24/15 15:19:50","Default description","no","chinese-japanese-korean","no","18","white","開始實驗B","768","legacy","F:\TCU\Lecture\Experimental_Psychology\2015Fall\Compatibility\0_preview\quickrun.csv","xpyriment","Interactive Ising","3.0.4","yes","0","None","d","NA","space","space","space","space","space","None","space","2000","4581","NA","309","269","341","757","405","2000","768","legacy","0","experiment","999","odd","NA","NA","2617789","NA","NA","NA","NA","NA","2613206","2618461","NA","NA","NA","2421173","NA","2620086","2618566","NA","2421173","2621087","2604595","2575629","2610180","2621090","2419488","2419800","2420072","2420416","2419080","2417052","2621090","2604598","2576132","2610682","2621094","2621094","2623198","NA","2623096","2623298","2418309","2618461","NA","NA","NA","2617790","2417051","Hommel2002EXP01","0","2000","1","yes","1024"
"y","no","yes","rect","0","0","2000","2000","black","no","xpyriment","legacy","yellow","green","blue","red","legacy","0","uniform","0","0","/","NA","NA","2","NA","NA","NA","NA","2","0","33","0","0","0","0","NA","33","33","0","0","33","33","33","33","33","0","0","0","0","0","0","33","33","33","33","33","33","33","33","33","33","0","33","NA","NA","NA","2","0","12/24/15 15:19:50","Default description","no","chinese-japanese-korean","no","18","white","開始實驗B","768","legacy","F:\TCU\Lecture\Experimental_Psychology\2015Fall\Compatibility\0_preview\quickrun.csv","xpyriment","Interactive Ising","3.0.4","yes","0","None","d","NA","space","space","space","space","space","None","space","2000","4581","NA","309","269","341","757","405","2000","768","legacy","0","experiment","999","odd","NA","NA","2617789","NA","NA","NA","NA","NA","2613206","2624081","NA","NA","NA","2421173","NA","2625716","2624214","NA","2421173","2626716","2604595","2575629","2626719","2621090","2419488","2419800","2420072","2420416","2419080","2417052","2626719","2604598","2576132","2626722","2621094","2626722","2628826","NA","2628724","2628926","2418309","2624081","NA","NA","NA","2617790","2417051","Hommel2002EXP01","0","4000","2","yes","1024"
"n","no","yes","rect","0","0","2000","2000","black","no","xpyriment","legacy","green","yellow","blue","red","legacy","0","uniform","0","0","/","NA","NA","2","NA","NA","NA","NA","2","0","34","0","0","0","0","NA","34","34","0","0","34","34","34","34","34","0","0","0","0","0","0","34","34","34","34","34","34","34","34","34","34","0","34","NA","NA","NA","2","0","12/24/15 15:19:50","Default description","no","chinese-japanese-korean","no","18","white","開始實驗B","768","legacy","F:\TCU\Lecture\Experimental_Psychology\2015Fall\Compatibility\0_preview\quickrun.csv","xpyriment","Interactive Ising","3.0.4","yes","0","None","d","NA","space","space","space","space","space","None","space","2000","4581","NA","309","269","341","757","405","2000","768","legacy","500","experiment","999","odd","NA","NA","2617789","NA","NA","NA","NA","NA","2613206","2629799","NA","NA","NA","2421173","NA","2631380","2629861","NA","2421173","2632380","2604595","2575629","2626719","2632382","2419488","2419800","2420072","2420416","2419080","2417052","2632883","2604598","2576132","2626722","2632886","2632886","2634990","NA","2634888","2635090","2418309","2629799","NA","NA","NA","2617790","2417051","Hommel2002EXP01","0","6000","3","yes","1024"
"y","no","yes","circle","0","0","2000","2000","black","no","xpyriment","legacy","red","green","blue","yellow","legacy","0","uniform","0","0","z","NA","NA","2","NA","NA","NA","NA","2","0","35","0","0","0","0","NA","35","35","0","0","35","35","35","35","35","0","0","0","0","0","0","35","35","35","35","35","35","35","35","35","35","0","35","NA","NA","NA","2","0","12/24/15 15:19:50","Default description","no","chinese-japanese-korean","no","18","white","開始實驗B","768","legacy","F:\TCU\Lecture\Experimental_Psychology\2015Fall\Compatibility\0_preview\quickrun.csv","xpyriment","Interactive Ising","3.0.4","yes","0","None","d","NA","space","space","space","space","space","None","space","2000","4581","NA","309","269","341","757","405","2000","768","legacy","0","experiment","999","odd","NA","NA","2617789","NA","NA","NA","NA","NA","2613206","2635827","NA","NA","NA","2421173","NA","2637455","2635936","NA","2421173","2638455","2638457","2575629","2626719","2632382","2419488","2419800","2420072","2420416","2419080","2417052","2638458","2638460","2576132","2626722","2632886","2638461","2640565","NA","2640463","2640665","2418309","2635827","NA","NA","NA","2617790","2417051","Hommel2002EXP01","0","8000","4","yes","1024"
"y","no","yes","circle","0","0","2000","2000","black","no","xpyriment","legacy","green","red","yellow","blue","legacy","0","uniform","0","0","z","NA","NA","2","NA","NA","NA","NA","2","0","36","0","0","0","0","NA","36","36","0","0","36","36","36","36","36","0","0","0","0","0","0","36","36","36","36","36","36","36","36","36","36","0","36","NA","NA","NA","2","0","12/24/15 15:19:50","Default description","no","chinese-japanese-korean","no","18","white","開始實驗B","768","legacy","F:\TCU\Lecture\Experimental_Psychology\2015Fall\Compatibility\0_preview\quickrun.csv","xpyriment","Interactive Ising","3.0.4","yes","0","None","d","NA","space","space","space","space","space","None","space","2000","4581","NA","309","269","341","757","405","2000","768","legacy","500","experiment","999","odd","NA","NA","2617789","NA","NA","NA","NA","NA","2613206","2641397","NA","NA","NA","2421173","NA","2643015","2641499","NA","2421173","2644015","2644017","2575629","2626719","2632382","2419488","2419800","2420072","2420416","2419080","2417052","2644518","2644520","2576132","2626722","2632886","2644521","2646625","NA","2646523","2646725","2418309","2641397","NA","NA","NA","2617790","2417051","Hommel2002EXP01","0","10000","5","yes","1024"
"n","no","yes","circle","0","0","2000","2000","black","no","xpyriment","legacy","green","blue","red","yellow","legacy","0","uniform","0","0","z","NA","NA","2","NA","NA","NA","NA","2","0","37","0","0","0","0","NA","37","37","0","0","37","37","37","37","37","0","0","0","0","0","0","37","37","37","37","37","37","37","37","37","37","0","37","NA","NA","NA","2","0","12/24/15 15:19:50","Default description","no","chinese-japanese-korean","no","18","white","開始實驗B","768","legacy","F:\TCU\Lecture\Experimental_Psychology\2015Fall\Compatibility\0_preview\quickrun.csv","xpyriment","Interactive Ising","3.0.4","yes","0","None","d","NA","space","space","space","space","space","None","space","2000","4581","NA","309","269","341","757","405","2000","768","legacy","500","experiment","999","odd","NA","NA","2617789","NA","NA","NA","NA","NA","2613206","2647459","NA","NA","NA","2421173","NA","2649076","2647560","NA","2421173","2650076","2644017","2650078","2626719","2632382","2419488","2419800","2420072","2420416","2419080","2417052","2650578","2644520","2650580","2626722","2632886","2650581","2652685","NA","2652583","2652785","2418309","2647459","NA","NA","NA","2617790","2417051","Hommel2002EXP01","0","12000","6","yes","1024"
"n","no","yes","rect","0","0","2000","2000","black","no","xpyriment","legacy","yellow","green","red","blue","legacy","0","uniform","0","0","/","NA","NA","2","NA","NA","NA","NA","2","0","38","0","0","0","0","NA","38","38","0","0","38","38","38","38","38","0","0","0","0","0","0","38","38","38","38","38","38","38","38","38","38","0","38","NA","NA","NA","2","0","12/24/15 15:19:50","Default description","no","chinese-japanese-korean","no","18","white","開始實驗B","768","legacy","F:\TCU\Lecture\Experimental_Psychology\2015Fall\Compatibility\0_preview\quickrun.csv","xpyriment","Interactive Ising","3.0.4","yes","0","None","d","NA","space","space","space","space","space","None","space","2000","4581","NA","309","269","341","757","405","2000","768","legacy","500","experiment","999","odd","NA","NA","2617789","NA","NA","NA","NA","NA","2613206","2653508","NA","NA","NA","2421173","NA","2655128","2653611","NA","2421173","2656128","2644017","2650078","2626719","2656130","2419488","2419800","2420072","2420416","2419080","2417052","2656631","2644520","2650580","2626722","2656633","2656634","2658738","NA","2658636","2658838","2418309","2653508","NA","NA","NA","2617790","2417051","Hommel2002EXP01","0","14000","7","yes","1024"
"n","no","yes","circle","0","0","2000","2000","black","no","xpyriment","legacy","yellow","green","blue","red","legacy","0","uniform","0","0","z","NA","NA","2","NA","NA","NA","NA","2","0","39","0","0","0","0","NA","39","39","0","0","39","39","39","39","39","0","0","0","0","0","0","39","39","39","39","39","39","39","39","39","39","0","39","NA","NA","NA","2","0","12/24/15 15:19:50","Default description","no","chinese-japanese-korean","no","18","white","開始實驗B","768","legacy","F:\TCU\Lecture\Experimental_Psychology\2015Fall\Compatibility\0_preview\quickrun.csv","xpyriment","Interactive Ising","3.0.4","yes","0","None","d","NA","space","space","space","space","space","None","space","2000","4581","NA","309","269","341","757","405","2000","768","legacy","500","experiment","999","odd","NA","NA","2617789","NA","NA","NA","NA","NA","2613206","2659603","NA","NA","NA","2421173","NA","2661237","2659735","NA","2421173","2662237","2644017","2662239","2626719","2656130","2419488","2419800","2420072","2420416","2419080","2417052","2662739","2644520","2662741","2626722","2656633","2662742","2664846","NA","2664744","2664946","2418309","2659603","NA","NA","NA","2617790","2417051","Hommel2002EXP01","0","16000","8","yes","1024"
"n","no","yes","rect","0","0","2000","2000","black","no","xpyriment","legacy","blue","red","yellow","green","legacy","0","uniform","0","0","/","NA","NA","2","NA","NA","NA","NA","2","0","40","0","0","0","0","NA","40","40","0","0","40","40","40","40","40","0","0","0","0","0","0","40","40","40","40","40","40","40","40","40","40","0","40","NA","NA","NA","2","0","12/24/15 15:19:50","Default description","no","chinese-japanese-korean","no","18","white","開始實驗B","768","legacy","F:\TCU\Lecture\Experimental_Psychology\2015Fall\Compatibility\0_preview\quickrun.csv","xpyriment","Interactive Ising","3.0.4","yes","0","None","d","NA","space","space","space","space","space","None","space","2001","4581","NA","309","269","341","757","405","2001","768","legacy","0","experiment","999","odd","NA","NA","2617789","NA","NA","NA","NA","NA","2613206","2665699","NA","NA","NA","2421173","NA","2667276","2665760","NA","2421173","2668276","2644017","2662239","2626719","2668278","2419488","2419800","2420072","2420416","2419080","2417052","2668279","2644520","2662741","2626722","2668281","2668281","2670386","NA","2670284","2670486","2418309","2665699","NA","NA","NA","2617790","2417051","Hommel2002EXP01","0","18001","9","yes","1024"
"n","no","yes","circle","0","0","2000","2000","black","no","xpyriment","legacy","blue","yellow","green","red","legacy","0","uniform","0","0","z","NA","NA","2","NA","NA","NA","NA","2","0","41","0","0","0","0","NA","41","41","0","0","41","41","41","41","41","0","0","0","0","0","0","41","41","41","41","41","41","41","41","41","41","0","41","NA","NA","NA","2","0","12/24/15 15:19:50","Default description","no","chinese-japanese-korean","no","18","white","開始實驗B","768","legacy","F:\TCU\Lecture\Experimental_Psychology\2015Fall\Compatibility\0_preview\quickrun.csv","xpyriment","Interactive Ising","3.0.4","yes","0","None","d","NA","space","space","space","space","space","None","space","2001","4581","NA","309","269","341","757","405","2001","768","legacy","0","experiment","999","odd","NA","NA","2617789","NA","NA","NA","NA","NA","2613206","2671215","NA","NA","NA","2421173","NA","2672838","2671322","NA","2421173","2673838","2644017","2673840","2626719","2668278","2419488","2419800","2420072","2420416","2419080","2417052","2673841","2644520","2673843","2626722","2668281","2673843","2675948","NA","2675846","2676048","2418309","2671215","NA","NA","NA","2617790","2417051","Hommel2002EXP01","0","20002","10","yes","1024"
"y","no","yes","circle","0","0","2000","2000","black","no","xpyriment","legacy","green","yellow","red","blue","legacy","0","uniform","0","0","z","NA","NA","2","NA","NA","NA","NA","2","0","42","0","0","0","0","NA","42","42","0","0","42","42","42","42","42","0","0","0","0","0","0","42","42","42","42","42","42","42","42","42","42","0","42","NA","NA","NA","2","0","12/24/15 15:19:50","Default description","no","chinese-japanese-korean","no","18","white","開始實驗B","768","legacy","F:\TCU\Lecture\Experimental_Psychology\2015Fall\Compatibility\0_preview\quickrun.csv","xpyriment","Interactive Ising","3.0.4","yes","0","None","d","NA","space","space","space","space","space","None","space","2000","4581","NA","309","269","341","757","405","2000","768","legacy","500","experiment","999","odd","NA","NA","2617789","NA","NA","NA","NA","NA","2613206","2676771","NA","NA","NA","2421173","NA","2678390","2676873","NA","2421173","2679390","2679392","2673840","2626719","2668278","2419488","2419800","2420072","2420416","2419080","2417052","2679893","2679895","2673843","2626722","2668281","2679896","2682000","NA","2681898","2682100","2418309","2676771","NA","NA","NA","2617790","2417051","Hommel2002EXP01","0","22002","11","yes","1024"
"y","no","yes","rect","0","0","2000","2000","black","no","xpyriment","legacy","yellow","green","blue","red","legacy","0","uniform","0","0","/","NA","NA","2","NA","NA","NA","NA","2","0","43","0","0","0","0","NA","43","43","0","0","43","43","43","43","43","0","0","0","0","0","0","43","43","43","43","43","43","43","43","43","43","0","43","NA","NA","NA","2","0","12/24/15 15:19:50","Default description","no","chinese-japanese-korean","no","18","white","開始實驗B","768","legacy","F:\TCU\Lecture\Experimental_Psychology\2015Fall\Compatibility\0_preview\quickrun.csv","xpyriment","Interactive Ising","3.0.4","yes","0","None","d","NA","space","space","space","space","space","None","space","2000","4581","NA","309","269","341","757","405","2000","768","legacy","0","experiment","999","odd","NA","NA","2617789","NA","NA","NA","NA","NA","2613206","2682834","NA","NA","NA","2421173","NA","2684451","2682937","NA","2421173","2685451","2679392","2673840","2685453","2668278","2419488","2419800","2420072","2420416","2419080","2417052","2685454","2679895","2673843","2685457","2668281","2685457","2687561","NA","2687459","2687661","2418309","2682834","NA","NA","NA","2617790","2417051","Hommel2002EXP01","0","24002","12","yes","1024"
"n","no","yes","circle","0","0","2000","2000","black","no","xpyriment","legacy","red","green","blue","yellow","legacy","0","uniform","0","0","z","NA","NA","2","NA","NA","NA","NA","2","0","44","0","0","0","0","NA","44","44","0","0","44","44","44","44","44","0","0","0","0","0","0","44","44","44","44","44","44","44","44","44","44","0","44","NA","NA","NA","2","0","12/24/15 15:19:50","Default description","no","chinese-japanese-korean","no","18","white","開始實驗B","768","legacy","F:\TCU\Lecture\Experimental_Psychology\2015Fall\Compatibility\0_preview\quickrun.csv","xpyriment","Interactive Ising","3.0.4","yes","0","None","d","NA","space","space","space","space","space","None","space","2000","4581","NA","309","269","341","757","405","2000","768","legacy","0","experiment","999","odd","NA","NA","2617789","NA","NA","NA","NA","NA","2613206","2688397","NA","NA","NA","2421173","NA","2690021","2688505","NA","2421173","2691021","2679392","2691023","2685453","2668278","2419488","2419800","2420072","2420416","2419080","2417052","2691024","2679895","2691026","2685457","2668281","2691027","2693131","NA","2693029","2693231","2418309","2688397","NA","NA","NA","2617790","2417051","Hommel2002EXP01","0","26002","13","yes","1024"
"y","no","yes","rect","0","0","2000","2000","black","no","xpyriment","legacy","blue","red","green","yellow","legacy","0","uniform","0","0","/","NA","NA","2","NA","NA","NA","NA","2","0","45","0","0","0","0","NA","45","45","0","0","45","45","45","45","45","0","0","0","0","0","0","45","45","45","45","45","45","45","45","45","45","0","45","NA","NA","NA","2","0","12/24/15 15:19:50","Default description","no","chinese-japanese-korean","no","18","white","開始實驗B","768","legacy","F:\TCU\Lecture\Experimental_Psychology\2015Fall\Compatibility\0_preview\quickrun.csv","xpyriment","Interactive Ising","3.0.4","yes","0","None","d","NA","space","space","space","space","space","None","space","2000","4581","NA","309","269","341","757","405","2000","768","legacy","500","experiment","999","odd","NA","NA","2617789","NA","NA","NA","NA","NA","2613206","2693968","NA","NA","NA","2421173","NA","2695598","2694080","NA","2421173","2696598","2679392","2691023","2696600","2668278","2419488","2419800","2420072","2420416","2419080","2417052","2697101","2679895","2691026","2697103","2668281","2697103","2699207","NA","2699105","2699307","2418309","2693968","NA","NA","NA","2617790","2417051","Hommel2002EXP01","0","28002","14","yes","1024"
"y","no","yes","rect","0","0","2000","2000","black","no","xpyriment","legacy","blue","yellow","green","red","legacy","0","uniform","0","0","/","NA","NA","2","NA","NA","NA","NA","2","0","46","0","0","0","0","NA","46","46","0","0","46","46","46","46","46","0","0","0","0","0","0","46","46","46","46","46","46","46","46","46","46","0","46","NA","NA","NA","2","0","12/24/15 15:19:50","Default description","no","chinese-japanese-korean","no","18","white","開始實驗B","768","legacy","F:\TCU\Lecture\Experimental_Psychology\2015Fall\Compatibility\0_preview\quickrun.csv","xpyriment","Interactive Ising","3.0.4","yes","0","None","d","NA","space","space","space","space","space","None","space","2000","4581","NA","309","269","341","757","405","2000","768","legacy","500","experiment","999","odd","NA","NA","2617789","NA","NA","NA","NA","NA","2613206","2700079","NA","NA","NA","2421173","NA","2701738","2700235","NA","2421173","2702738","2679392","2691023","2702740","2668278","2419488","2419800","2420072","2420416","2419080","2417052","2703241","2679895","2691026","2703243","2668281","2703244","2705348","NA","2705246","2705448","2418309","2700079","NA","NA","NA","2617790","2417051","Hommel2002EXP01","0","30002","15","yes","1024"
"y","no","yes","circle","0","0","2000","2000","black","no","xpyriment","legacy","yellow","blue","green","red","legacy","0","uniform","0","0","z","NA","NA","2","NA","NA","NA","NA","2","0","47","0","0","0","0","NA","47","47","0","0","47","47","47","47","47","0","0","0","0","0","0","47","47","47","47","47","47","47","47","47","47","0","47","NA","NA","NA","2","0","12/24/15 15:19:50","Default description","no","chinese-japanese-korean","no","18","white","開始實驗B","768","legacy","F:\TCU\Lecture\Experimental_Psychology\2015Fall\Compatibility\0_preview\quickrun.csv","xpyriment","Interactive Ising","3.0.4","yes","0","None","d","NA","space","space","space","space","space","None","space","2000","4581","NA","309","269","341","757","405","2000","768","legacy","0","experiment","999","odd","NA","NA","2617789","NA","NA","NA","NA","NA","2613206","2706167","NA","NA","NA","2421173","NA","2707797","2706281","NA","2421173","2708797","2708799","2691023","2702740","2668278","2419488","2419800","2420072","2420416","2419080","2417052","2708800","2708802","2691026","2703243","2668281","2708803","2710907","NA","2710805","2711007","2418309","2706167","NA","NA","NA","2617790","2417051","Hommel2002EXP01","0","32002","16","yes","1024"
"n","no","yes","rect","0","0","2000","2000","black","no","xpyriment","legacy","green","blue","red","yellow","legacy","0","uniform","0","0","/","NA","NA","3","NA","NA","NA","NA","3","0","48","0","0","0","0","NA","48","48","0","0","48","48","48","48","48","0","0","0","0","0","0","48","48","48","48","48","48","48","48","48","48","0","48","NA","NA","NA","3","0","12/24/15 15:19:50","Default description","no","chinese-japanese-korean","no","18","white","開始實驗B","768","legacy","F:\TCU\Lecture\Experimental_Psychology\2015Fall\Compatibility\0_preview\quickrun.csv","xpyriment","Interactive Ising","3.0.4","yes","0","None","d","NA","space","space","space","space","space","None","space","2000","4581","NA","309","269","341","757","405","2000","768","legacy","0","experiment","999","odd","NA","NA","2711252","NA","NA","NA","NA","NA","2613206","2711936","NA","NA","NA","2421173","NA","2713550","2712031","NA","2421173","2714550","2708799","2691023","2702740","2714552","2419488","2419800","2420072","2420416","2419080","2417052","2714553","2708802","2691026","2703243","2714556","2714556","2716660","NA","2716558","2716760","2418309","2711935","NA","NA","NA","2711252","2417051","Hommel2002EXP01","0","2000","1","yes","1024"
"y","no","yes","circle","0","0","2000","2000","black","no","xpyriment","legacy","yellow","green","red","blue","legacy","0","uniform","0","0","z","NA","NA","3","NA","NA","NA","NA","3","0","49","0","0","0","0","NA","49","49","0","0","49","49","49","49","49","0","0","0","0","0","0","49","49","49","49","49","49","49","49","49","49","0","49","NA","NA","NA","3","0","12/24/15 15:19:50","Default description","no","chinese-japanese-korean","no","18","white","開始實驗B","768","legacy","F:\TCU\Lecture\Experimental_Psychology\2015Fall\Compatibility\0_preview\quickrun.csv","xpyriment","Interactive Ising","3.0.4","yes","0","None","d","NA","space","space","space","space","space","None","space","2000","4581","NA","309","269","341","757","405","2000","768","legacy","500","experiment","999","odd","NA","NA","2711252","NA","NA","NA","NA","NA","2613206","2717536","NA","NA","NA","2421173","NA","2719161","2717645","NA","2421173","2720161","2720163","2691023","2702740","2714552","2419488","2419800","2420072","2420416","2419080","2417052","2720664","2720666","2691026","2703243","2714556","2720667","2722771","NA","2722669","2722871","2418309","2717536","NA","NA","NA","2711252","2417051","Hommel2002EXP01","0","4000","2","yes","1024"
"y","no","yes","rect","0","0","2000","2000","black","no","xpyriment","legacy","green","red","yellow","blue","legacy","0","uniform","0","0","/","NA","NA","3","NA","NA","NA","NA","3","0","50","0","0","0","0","NA","50","50","0","0","50","50","50","50","50","0","0","0","0","0","0","50","50","50","50","50","50","50","50","50","50","0","50","NA","NA","NA","3","0","12/24/15 15:19:50","Default description","no","chinese-japanese-korean","no","18","white","開始實驗B","768","legacy","F:\TCU\Lecture\Experimental_Psychology\2015Fall\Compatibility\0_preview\quickrun.csv","xpyriment","Interactive Ising","3.0.4","yes","0","None","d","NA","space","space","space","space","space","None","space","2000","4581","NA","309","269","341","757","405","2000","768","legacy","500","experiment","999","odd","NA","NA","2711252","NA","NA","NA","NA","NA","2613206","2723609","NA","NA","NA","2421173","NA","2725243","2723724","NA","2421173","2726243","2720163","2691023","2726245","2714552","2419488","2419800","2420072","2420416","2419080","2417052","2726746","2720666","2691026","2726748","2714556","2726749","2728853","NA","2728751","2728953","2418309","2723609","NA","NA","NA","2711252","2417051","Hommel2002EXP01","0","6000","3","yes","1024"
"n","no","yes","circle","0","0","2000","2000","black","no","xpyriment","legacy","yellow","red","green","blue","legacy","0","uniform","0","0","z","NA","NA","3","NA","NA","NA","NA","3","0","51","0","0","0","0","NA","51","51","0","0","51","51","51","51","51","0","0","0","0","0","0","51","51","51","51","51","51","51","51","51","51","0","51","NA","NA","NA","3","0","12/24/15 15:19:50","Default description","no","chinese-japanese-korean","no","18","white","開始實驗B","768","legacy","F:\TCU\Lecture\Experimental_Psychology\2015Fall\Compatibility\0_preview\quickrun.csv","xpyriment","Interactive Ising","3.0.4","yes","0","None","d","NA","space","space","space","space","space","None","space","2000","4581","NA","309","269","341","757","405","2000","768","legacy","0","experiment","999","odd","NA","NA","2711252","NA","NA","NA","NA","NA","2613206","2729878","NA","NA","NA","2421173","NA","2731512","2729994","NA","2421173","2732512","2720163","2732514","2726245","2714552","2419488","2419800","2420072","2420416","2419080","2417052","2732515","2720666","2732517","2726748","2714556","2732518","2734622","NA","2734520","2734722","2418309","2729878","NA","NA","NA","2711252","2417051","Hommel2002EXP01","0","8000","4","yes","1024"
"n","no","yes","circle","0","0","2000","2000","black","no","xpyriment","legacy","green","blue","yellow","red","legacy","0","uniform","0","0","z","NA","NA","3","NA","NA","NA","NA","3","0","52","0","0","0","0","NA","52","52","0","0","52","52","52","52","52","0","0","0","0","0","0","52","52","52","52","52","52","52","52","52","52","0","52","NA","NA","NA","3","0","12/24/15 15:19:50","Default description","no","chinese-japanese-korean","no","18","white","開始實驗B","768","legacy","F:\TCU\Lecture\Experimental_Psychology\2015Fall\Compatibility\0_preview\quickrun.csv","xpyriment","Interactive Ising","3.0.4","yes","0","None","d","NA","space","space","space","space","space","None","space","2000","4581","NA","309","269","341","757","405","2000","768","legacy","0","experiment","999","odd","NA","NA","2711252","NA","NA","NA","NA","NA","2613206","2735474","NA","NA","NA","2421173","NA","2737137","2735635","NA","2421173","2738137","2720163","2738139","2726245","2714552","2419488","2419800","2420072","2420416","2419080","2417052","2738140","2720666","2738142","2726748","2714556","2738143","2740247","NA","2740145","2740347","2418309","2735474","NA","NA","NA","2711252","2417051","Hommel2002EXP01","0","10000","5","yes","1024"
"y","no","yes","rect","0","0","2000","2000","black","no","xpyriment","legacy","blue","red","yellow","green","legacy","0","uniform","0","0","/","NA","NA","3","NA","NA","NA","NA","3","0","53","0","0","0","0","NA","53","53","0","0","53","53","53","53","53","0","0","0","0","0","0","53","53","53","53","53","53","53","53","53","53","0","53","NA","NA","NA","3","0","12/24/15 15:19:50","Default description","no","chinese-japanese-korean","no","18","white","開始實驗B","768","legacy","F:\TCU\Lecture\Experimental_Psychology\2015Fall\Compatibility\0_preview\quickrun.csv","xpyriment","Interactive Ising","3.0.4","yes","0","None","d","NA","space","space","space","space","space","None","space","2001","4581","NA","309","269","341","757","405","2001","768","legacy","0","experiment","999","odd","NA","NA","2711252","NA","NA","NA","NA","NA","2613206","2741146","NA","NA","NA","2421173","NA","2742739","2741223","NA","2421173","2743739","2720163","2738139","2743741","2714552","2419488","2419800","2420072","2420416","2419080","2417052","2743742","2720666","2738142","2743744","2714556","2743744","2745849","NA","2745747","2745949","2418309","2741146","NA","NA","NA","2711252","2417051","Hommel2002EXP01","0","12001","6","yes","1024"
"y","no","yes","rect","0","0","2000","2000","black","no","xpyriment","legacy","red","blue","green","yellow","legacy","0","uniform","0","0","/","NA","NA","3","NA","NA","NA","NA","3","0","54","0","0","0","0","NA","54","54","0","0","54","54","54","54","54","0","0","0","0","0","0","54","54","54","54","54","54","54","54","54","54","0","54","NA","NA","NA","3","0","12/24/15 15:19:50","Default description","no","chinese-japanese-korean","no","18","white","開始實驗B","768","legacy","F:\TCU\Lecture\Experimental_Psychology\2015Fall\Compatibility\0_preview\quickrun.csv","xpyriment","Interactive Ising","3.0.4","yes","0","None","d","NA","space","space","space","space","space","None","space","2000","4581","NA","309","269","341","757","405","2000","768","legacy","500","experiment","999","odd","NA","NA","2711252","NA","NA","NA","NA","NA","2613206","2746689","NA","NA","NA","2421173","NA","2748302","2746786","NA","2421173","2749302","2720163","2738139","2749304","2714552","2419488","2419800","2420072","2420416","2419080","2417052","2749805","2720666","2738142","2749807","2714556","2749808","2751913","NA","2751810","2752013","2418309","2746689","NA","NA","NA","2711252","2417051","Hommel2002EXP01","0","14001","7","yes","1024"
"y","no","yes","circle","0","0","2000","2000","black","no","xpyriment","legacy","yellow","green","blue","red","legacy","0","uniform","0","0","z","NA","NA","3","NA","NA","NA","NA","3","0","55","0","0","0","0","NA","55","55","0","0","55","55","55","55","55","0","0","0","0","0","0","55","55","55","55","55","55","55","55","55","55","0","55","NA","NA","NA","3","0","12/24/15 15:19:50","Default description","no","chinese-japanese-korean","no","18","white","開始實驗B","768","legacy","F:\TCU\Lecture\Experimental_Psychology\2015Fall\Compatibility\0_preview\quickrun.csv","xpyriment","Interactive Ising","3.0.4","yes","0","None","d","NA","space","space","space","space","space","None","space","2000","4581","NA","309","269","341","757","405","2000","768","legacy","500","experiment","999","odd","NA","NA","2711252","NA","NA","NA","NA","NA","2613206","2752737","NA","NA","NA","2421173","NA","2754357","2752841","NA","2421173","2755357","2755359","2738139","2749304","2714552","2419488","2419800","2420072","2420416","2419080","2417052","2755859","2755861","2738142","2749807","2714556","2755862","2757966","NA","2757864","2758066","2418309","2752737","NA","NA","NA","2711252","2417051","Hommel2002EXP01","0","16001","8","yes","1024"
"n","no","yes","rect","0","0","2000","2000","black","no","xpyriment","legacy","green","red","blue","yellow","legacy","0","uniform","0","0","/","NA","NA","3","NA","NA","NA","NA","3","0","56","0","0","0","0","NA","56","56","0","0","56","56","56","56","56","0","0","0","0","0","0","56","56","56","56","56","56","56","56","56","56","0","56","NA","NA","NA","3","0","12/24/15 15:19:50","Default description","no","chinese-japanese-korean","no","18","white","開始實驗B","768","legacy","F:\TCU\Lecture\Experimental_Psychology\2015Fall\Compatibility\0_preview\quickrun.csv","xpyriment","Interactive Ising","3.0.4","yes","0","None","d","NA","space","space","space","space","space","None","space","2000","4581","NA","309","269","341","757","405","2000","768","legacy","0","experiment","999","odd","NA","NA","2711252","NA","NA","NA","NA","NA","2613206","2758791","NA","NA","NA","2421173","NA","2760419","2758903","NA","2421173","2761419","2755359","2738139","2749304","2761421","2419488","2419800","2420072","2420416","2419080","2417052","2761422","2755861","2738142","2749807","2761424","2761425","2763529","NA","2763427","2763629","2418309","2758791","NA","NA","NA","2711252","2417051","Hommel2002EXP01","0","18001","9","yes","1024"
"y","no","yes","circle","0","0","2000","2000","black","no","xpyriment","legacy","green","red","yellow","blue","legacy","0","uniform","0","0","z","NA","NA","3","NA","NA","NA","NA","3","0","57","0","0","0","0","NA","57","57","0","0","57","57","57","57","57","0","0","0","0","0","0","57","57","57","57","57","57","57","57","57","57","0","57","NA","NA","NA","3","0","12/24/15 15:19:50","Default description","no","chinese-japanese-korean","no","18","white","開始實驗B","768","legacy","F:\TCU\Lecture\Experimental_Psychology\2015Fall\Compatibility\0_preview\quickrun.csv","xpyriment","Interactive Ising","3.0.4","yes","0","None","d","NA","space","space","space","space","space","None","space","2001","4581","NA","309","269","341","757","405","2001","768","legacy","0","experiment","999","odd","NA","NA","2711252","NA","NA","NA","NA","NA","2613206","2764363","NA","NA","NA","2421173","NA","2766010","2764491","NA","2421173","2767011","2767013","2738139","2749304","2761421","2419488","2419800","2420072","2420416","2419080","2417052","2767014","2767016","2738142","2749807","2761424","2767016","2769121","NA","2769019","2769221","2418309","2764363","NA","NA","NA","2711252","2417051","Hommel2002EXP01","0","20002","10","yes","1024"
"n","no","yes","circle","0","0","2000","2000","black","no","xpyriment","legacy","red","yellow","green","blue","legacy","0","uniform","0","0","z","NA","NA","3","NA","NA","NA","NA","3","0","58","0","0","0","0","NA","58","58","0","0","58","58","58","58","58","0","0","0","0","0","0","58","58","58","58","58","58","58","58","58","58","0","58","NA","NA","NA","3","0","12/24/15 15:19:50","Default description","no","chinese-japanese-korean","no","18","white","開始實驗B","768","legacy","F:\TCU\Lecture\Experimental_Psychology\2015Fall\Compatibility\0_preview\quickrun.csv","xpyriment","Interactive Ising","3.0.4","yes","0","None","d","NA","space","space","space","space","space","None","space","2000","4581","NA","309","269","341","757","405","2000","768","legacy","500","experiment","999","odd","NA","NA","2711252","NA","NA","NA","NA","NA","2613206","2769963","NA","NA","NA","2421173","NA","2771641","2770123","NA","2421173","2772642","2767013","2772644","2749304","2761421","2419488","2419800","2420072","2420416","2419080","2417052","2773144","2767016","2773146","2749807","2761424","2773147","2775251","NA","2775149","2775351","2418309","2769963","NA","NA","NA","2711252","2417051","Hommel2002EXP01","0","22002","11","yes","1024"
"y","no","yes","rect","0","0","2000","2000","black","no","xpyriment","legacy","yellow","red","green","blue","legacy","0","uniform","0","0","/","NA","NA","3","NA","NA","NA","NA","3","0","59","0","0","0","0","NA","59","59","0","0","59","59","59","59","59","0","0","0","0","0","0","59","59","59","59","59","59","59","59","59","59","0","59","NA","NA","NA","3","0","12/24/15 15:19:50","Default description","no","chinese-japanese-korean","no","18","white","開始實驗B","768","legacy","F:\TCU\Lecture\Experimental_Psychology\2015Fall\Compatibility\0_preview\quickrun.csv","xpyriment","Interactive Ising","3.0.4","yes","0","None","d","NA","space","space","space","space","space","None","space","2003","4581","NA","309","269","341","757","405","2003","768","legacy","0","experiment","999","odd","NA","NA","2711252","NA","NA","NA","NA","NA","2613206","2776121","NA","NA","NA","2421173","NA","2777811","2776309","NA","2421173","2778811","2767013","2772644","2778813","2761421","2419488","2419800","2420072","2420416","2419080","2417052","2778814","2767016","2773146","2778816","2761424","2778816","2780924","NA","2780822","2781024","2418309","2776121","NA","NA","NA","2711252","2417051","Hommel2002EXP01","0","24005","12","yes","1024"
"y","no","yes","circle","0","0","2000","2000","black","no","xpyriment","legacy","blue","yellow","red","green","legacy","0","uniform","0","0","z","NA","NA","3","NA","NA","NA","NA","3","0","60","0","0","0","0","NA","60","60","0","0","60","60","60","60","60","0","0","0","0","0","0","60","60","60","60","60","60","60","60","60","60","0","60","NA","NA","NA","3","0","12/24/15 15:19:50","Default description","no","chinese-japanese-korean","no","18","white","開始實驗B","768","legacy","F:\TCU\Lecture\Experimental_Psychology\2015Fall\Compatibility\0_preview\quickrun.csv","xpyriment","Interactive Ising","3.0.4","yes","0","None","d","NA","space","space","space","space","space","None","space","2001","4581","NA","309","269","341","757","405","2001","768","legacy","0","experiment","999","odd","NA","NA","2711252","NA","NA","NA","NA","NA","2613206","2781889","NA","NA","NA","2421173","NA","2783485","2781966","NA","2421173","2784485","2784487","2772644","2778813","2761421","2419488","2419800","2420072","2420416","2419080","2417052","2784488","2784490","2773146","2778816","2761424","2784490","2786595","NA","2786493","2786695","2418309","2781889","NA","NA","NA","2711252","2417051","Hommel2002EXP01","0","26006","13","yes","1024"
"n","no","yes","circle","0","0","2000","2000","black","no","xpyriment","legacy","green","red","yellow","blue","legacy","0","uniform","0","0","z","NA","NA","3","NA","NA","NA","NA","3","0","61","0","0","0","0","NA","61","61","0","0","61","61","61","61","61","0","0","0","0","0","0","61","61","61","61","61","61","61","61","61","61","0","61","NA","NA","NA","3","0","12/24/15 15:19:50","Default description","no","chinese-japanese-korean","no","18","white","開始實驗B","768","legacy","F:\TCU\Lecture\Experimental_Psychology\2015Fall\Compatibility\0_preview\quickrun.csv","xpyriment","Interactive Ising","3.0.4","yes","0","None","d","NA","space","space","space","space","space","None","space","2000","4581","NA","309","269","341","757","405","2000","768","legacy","500","experiment","999","odd","NA","NA","2711252","NA","NA","NA","NA","NA","2613206","2787425","NA","NA","NA","2421173","NA","2789039","2787522","NA","2421173","2790039","2784487","2790041","2778813","2761421","2419488","2419800","2420072","2420416","2419080","2417052","2790542","2784490","2790544","2778816","2761424","2790545","2792650","NA","2792547","2792750","2418309","2787425","NA","NA","NA","2711252","2417051","Hommel2002EXP01","0","28006","14","yes","1024"
"n","no","yes","rect","0","0","2000","2000","black","no","xpyriment","legacy","blue","green","red","yellow","legacy","0","uniform","0","0","/","NA","NA","3","NA","NA","NA","NA","3","0","62","0","0","0","0","NA","62","62","0","0","62","62","62","62","62","0","0","0","0","0","0","62","62","62","62","62","62","62","62","62","62","0","62","NA","NA","NA","3","0","12/24/15 15:19:50","Default description","no","chinese-japanese-korean","no","18","white","開始實驗B","768","legacy","F:\TCU\Lecture\Experimental_Psychology\2015Fall\Compatibility\0_preview\quickrun.csv","xpyriment","Interactive Ising","3.0.4","yes","0","None","d","NA","space","space","space","space","space","None","space","2000","4581","NA","309","269","341","757","405","2000","768","legacy","500","experiment","999","odd","NA","NA","2711252","NA","NA","NA","NA","NA","2613206","2793467","NA","NA","NA","2421173","NA","2795152","2793574","NA","2421173","2796152","2784487","2790041","2778813","2796154","2419488","2419800","2420072","2420416","2419080","2417052","2796655","2784490","2790544","2778816","2796657","2796657","2798761","NA","2798659","2798861","2418309","2793467","NA","NA","NA","2711252","2417051","Hommel2002EXP01","0","30006","15","yes","1024"
"n","no","yes","rect","0","0","2000","2000","black","no","xpyriment","legacy","blue","green","yellow","red","legacy","0","uniform","0","0","/","NA","NA","3","NA","NA","NA","NA","3","0","63","0","0","0","0","NA","63","63","0","0","63","63","63","63","63","0","0","0","0","0","0","63","63","63","63","63","63","63","63","63","63","0","63","NA","NA","NA","3","0","12/24/15 15:19:50","Default description","no","chinese-japanese-korean","no","18","white","開始實驗B","768","legacy","F:\TCU\Lecture\Experimental_Psychology\2015Fall\Compatibility\0_preview\quickrun.csv","xpyriment","Interactive Ising","3.0.4","yes","0","None","d","NA","space","space","space","space","space","None","space","2000","4581","NA","309","269","341","757","405","2000","768","legacy","500","experiment","999","odd","NA","NA","2711252","NA","NA","NA","NA","NA","2613206","2799600","NA","NA","NA","2421173","NA","2801235","2799718","NA","2421173","2802235","2784487","2790041","2778813","2802237","2419488","2419800","2420072","2420416","2419080","2417052","2802738","2784490","2790544","2778816","2802740","2802741","2804845","NA","2804743","2804945","2418309","2799600","NA","NA","NA","2711252","2417051","Hommel2002EXP01","0","32006","16","yes","1024"
"y","no","yes","circle","0","0","2000","2000","black","no","xpyriment","legacy","yellow","green","red","blue","legacy","0","uniform","0","0","z","NA","0","3","NA","NA","0","NA","3","1","64","0","0","0","0","0","64","64","0","0","64","64","64","64","64","0","0","0","0","0","0","64","64","64","64","64","64","64","64","64","64","0","64","NA","0","NA","3","0","12/24/15 15:19:50","Default description","no","chinese-japanese-korean","no","18","white","開始實驗B","768","legacy","F:\TCU\Lecture\Experimental_Psychology\2015Fall\Compatibility\0_preview\quickrun.csv","xpyriment","Interactive Ising","3.0.4","","0","None","space","space","space","space","space","space","space","None","space","2000","4635","9257","309","269","341","757","405","2000","768","legacy","250","experiment","999","odd","NA","2819325","2711252","NA","NA","NA","NA","NA","2805295","2819993","NA","2819322","NA","2421173","2810065","2821671","2820123","NA","2421173","2822671","2822673","2790041","2778813","2802237","2419488","2419800","2420072","2420416","2419080","2417052","2822924","2822926","2790544","2778816","2802740","2822976","2825106","NA","2825004","2825206","2418309","2819993","NA","2819325","NA","2711252","2417051","Hommel2002EXP01","0","2000","1","yes","1024"
"n","no","yes","rect","0","0","2000","2000","black","no","xpyriment","legacy","blue","green","yellow","red","legacy","0","uniform","0","0","/","NA","0","3","NA","NA","0","NA","3","1","65","0","0","0","0","0","65","65","0","0","65","65","65","65","65","0","0","0","0","0","0","65","65","65","65","65","65","65","65","65","65","0","65","NA","0","NA","3","0","12/24/15 15:19:50","Default description","no","chinese-japanese-korean","no","18","white","開始實驗B","768","legacy","F:\TCU\Lecture\Experimental_Psychology\2015Fall\Compatibility\0_preview\quickrun.csv","xpyriment","Interactive Ising","3.0.4","","0","None","space","space","space","space","space","space","space","None","space","2000","4635","9257","309","269","341","757","405","2000","768","legacy","250","experiment","999","odd","NA","2819325","2711252","NA","NA","NA","NA","NA","2805295","2826089","NA","2819322","NA","2421173","2810065","2827838","2826322","NA","2421173","2828838","2822673","2790041","2778813","2828841","2419488","2419800","2420072","2420416","2419080","2417052","2829091","2822926","2790544","2778816","2829094","2829094","2831198","NA","2831096","2831298","2418309","2826089","NA","2819325","NA","2711252","2417051","Hommel2002EXP01","0","4000","2","yes","1024"
"y","no","yes","rect","0","0","2000","2000","black","no","xpyriment","legacy","yellow","red","green","blue","legacy","0","uniform","0","0","/","NA","0","3","NA","NA","0","NA","3","1","66","0","0","0","0","0","66","66","0","0","66","66","66","66","66","0","0","0","0","0","0","66","66","66","66","66","66","66","66","66","66","0","66","NA","0","NA","3","0","12/24/15 15:19:50","Default description","no","chinese-japanese-korean","no","18","white","開始實驗B","768","legacy","F:\TCU\Lecture\Experimental_Psychology\2015Fall\Compatibility\0_preview\quickrun.csv","xpyriment","Interactive Ising","3.0.4","","0","None","space","space","space","space","space","space","space","None","space","2001","4635","9257","309","269","341","757","405","2001","768","legacy","0","experiment","999","odd","NA","2819325","2711252","NA","NA","NA","NA","NA","2805295","2832026","NA","2819322","NA","2421173","2810065","2833640","2832123","NA","2421173","2834640","2822673","2790041","2834643","2828841","2419488","2419800","2420072","2420416","2419080","2417052","2834644","2822926","2790544","2834646","2829094","2834646","2836751","NA","2836649","2836851","2418309","2832026","NA","2819325","NA","2711252","2417051","Hommel2002EXP01","0","6001","3","yes","1024"
"y","no","yes","rect","0","0","2000","2000","black","no","xpyriment","legacy","green","red","blue","yellow","legacy","0","uniform","0","0","/","NA","0","3","NA","NA","0","NA","3","1","67","0","0","0","0","0","67","67","0","0","67","67","67","67","67","0","0","0","0","0","0","67","67","67","67","67","67","67","67","67","67","0","67","NA","0","NA","3","0","12/24/15 15:19:50","Default description","no","chinese-japanese-korean","no","18","white","開始實驗B","768","legacy","F:\TCU\Lecture\Experimental_Psychology\2015Fall\Compatibility\0_preview\quickrun.csv","xpyriment","Interactive Ising","3.0.4","","0","None","space","space","space","space","space","space","space","None","space","2001","4635","9257","309","269","341","757","405","2001","768","legacy","0","experiment","999","odd","NA","2819325","2711252","NA","NA","NA","NA","NA","2805295","2837587","NA","2819322","NA","2421173","2810065","2839210","2837694","NA","2421173","2840210","2822673","2790041","2840212","2828841","2419488","2419800","2420072","2420416","2419080","2417052","2840213","2822926","2790544","2840215","2829094","2840215","2842320","NA","2842218","2842420","2418309","2837587","NA","2819325","NA","2711252","2417051","Hommel2002EXP01","0","8002","4","yes","1024"
"n","no","yes","circle","0","0","2000","2000","black","no","xpyriment","legacy","yellow","blue","green","red","legacy","0","uniform","0","0","z","NA","0","3","NA","NA","0","NA","3","1","68","0","0","0","0","0","68","68","0","0","68","68","68","68","68","0","0","0","0","0","0","68","68","68","68","68","68","68","68","68","68","0","68","NA","0","NA","3","0","12/24/15 15:19:50","Default description","no","chinese-japanese-korean","no","18","white","開始實驗B","768","legacy","F:\TCU\Lecture\Experimental_Psychology\2015Fall\Compatibility\0_preview\quickrun.csv","xpyriment","Interactive Ising","3.0.4","","0","None","space","space","space","space","space","space","space","None","space","2001","4635","9257","309","269","341","757","405","2001","768","legacy","0","experiment","999","odd","NA","2819325","2711252","NA","NA","NA","NA","NA","2805295","2843156","NA","2819322","NA","2421173","2810065","2844786","2843269","NA","2421173","2845786","2822673","2845788","2840212","2828841","2419488","2419800","2420072","2420416","2419080","2417052","2845789","2822926","2845791","2840215","2829094","2845791","2847896","NA","2847794","2847996","2418309","2843156","NA","2819325","NA","2711252","2417051","Hommel2002EXP01","0","10003","5","yes","1024"
"y","no","yes","rect","0","0","2000","2000","black","no","xpyriment","legacy","green","yellow","red","blue","legacy","0","uniform","0","0","/","NA","0","3","NA","NA","0","NA","3","1","69","0","0","0","0","0","69","69","0","0","69","69","69","69","69","0","0","0","0","0","0","69","69","69","69","69","69","69","69","69","69","0","69","NA","0","NA","3","0","12/24/15 15:19:50","Default description","no","chinese-japanese-korean","no","18","white","開始實驗B","768","legacy","F:\TCU\Lecture\Experimental_Psychology\2015Fall\Compatibility\0_preview\quickrun.csv","xpyriment","Interactive Ising","3.0.4","","0","None","space","space","space","space","space","space","space","None","space","2000","4635","9257","309","269","341","757","405","2000","768","legacy","250","experiment","999","odd","NA","2819325","2711252","NA","NA","NA","NA","NA","2805295","2848743","NA","2819322","NA","2421173","2810065","2850380","2848865","NA","2421173","2851381","2822673","2845788","2851383","2828841","2419488","2419800","2420072","2420416","2419080","2417052","2851634","2822926","2845791","2851636","2829094","2851637","2853741","NA","2853639","2853841","2418309","2848743","NA","2819325","NA","2711252","2417051","Hommel2002EXP01","0","12003","6","yes","1024"
"n","no","yes","rect","0","0","2000","2000","black","no","xpyriment","legacy","blue","green","yellow","red","legacy","0","uniform","0","0","/","NA","0","3","NA","NA","0","NA","3","1","70","0","0","0","0","0","70","70","0","0","70","70","70","70","70","0","0","0","0","0","0","70","70","70","70","70","70","70","70","70","70","0","70","NA","0","NA","3","0","12/24/15 15:19:50","Default description","no","chinese-japanese-korean","no","18","white","開始實驗B","768","legacy","F:\TCU\Lecture\Experimental_Psychology\2015Fall\Compatibility\0_preview\quickrun.csv","xpyriment","Interactive Ising","3.0.4","","0","None","space","space","space","space","space","space","space","None","space","2000","4635","9257","309","269","341","757","405","2000","768","legacy","500","experiment","999","odd","NA","2819325","2711252","NA","NA","NA","NA","NA","2805295","2854585","NA","2819322","NA","2421173","2810065","2856226","2854708","NA","2421173","2857226","2822673","2845788","2851383","2857228","2419488","2419800","2420072","2420416","2419080","2417052","2857729","2822926","2845791","2851636","2857734","2857734","2859838","NA","2859736","2859938","2418309","2854585","NA","2819325","NA","2711252","2417051","Hommel2002EXP01","0","14003","7","yes","1024"
"y","no","yes","rect","0","0","2000","2000","black","no","xpyriment","legacy","red","yellow","blue","green","legacy","0","uniform","0","0","/","NA","0","3","NA","NA","0","NA","3","1","71","0","0","0","0","0","71","71","0","0","71","71","71","71","71","0","0","0","0","0","0","71","71","71","71","71","71","71","71","71","71","0","71","NA","0","NA","3","0","12/24/15 15:19:50","Default description","no","chinese-japanese-korean","no","18","white","開始實驗B","768","legacy","F:\TCU\Lecture\Experimental_Psychology\2015Fall\Compatibility\0_preview\quickrun.csv","xpyriment","Interactive Ising","3.0.4","","0","None","space","space","space","space","space","space","space","None","space","2000","4635","9257","309","269","341","757","405","2000","768","legacy","500","experiment","999","odd","NA","2819325","2711252","NA","NA","NA","NA","NA","2805295","2860713","NA","2819322","NA","2421173","2810065","2862320","2860818","NA","2421173","2863320","2822673","2845788","2863322","2857228","2419488","2419800","2420072","2420416","2419080","2417052","2863823","2822926","2845791","2863825","2857734","2863826","2865930","NA","2865828","2866030","2418309","2860713","NA","2819325","NA","2711252","2417051","Hommel2002EXP01","0","16003","8","yes","1024"
"n","no","yes","rect","0","0","2000","2000","black","no","xpyriment","legacy","red","yellow","blue","green","legacy","0","uniform","0","0","/","NA","0","3","NA","NA","0","NA","3","1","72","0","0","0","0","0","72","72","0","0","72","72","72","72","72","0","0","0","0","0","0","72","72","72","72","72","72","72","72","72","72","0","72","NA","0","NA","3","0","12/24/15 15:19:50","Default description","no","chinese-japanese-korean","no","18","white","開始實驗B","768","legacy","F:\TCU\Lecture\Experimental_Psychology\2015Fall\Compatibility\0_preview\quickrun.csv","xpyriment","Interactive Ising","3.0.4","","0","None","space","space","space","space","space","space","space","None","space","2000","4635","9257","309","269","341","757","405","2000","768","legacy","0","experiment","999","odd","NA","2819325","2711252","NA","NA","NA","NA","NA","2805295","2866828","NA","2819322","NA","2421173","2810065","2868423","2866907","NA","2421173","2869423","2822673","2845788","2863322","2869425","2419488","2419800","2420072","2420416","2419080","2417052","2869426","2822926","2845791","2863825","2869428","2869429","2871533","NA","2871431","2871633","2418309","2866828","NA","2819325","NA","2711252","2417051","Hommel2002EXP01","0","18003","9","yes","1024"
"n","no","yes","circle","0","0","2000","2000","black","no","xpyriment","legacy","yellow","blue","green","red","legacy","0","uniform","0","0","z","NA","0","3","NA","NA","0","NA","3","1","73","0","0","0","0","0","73","73","0","0","73","73","73","73","73","0","0","0","0","0","0","73","73","73","73","73","73","73","73","73","73","0","73","NA","0","NA","3","0","12/24/15 15:19:50","Default description","no","chinese-japanese-korean","no","18","white","開始實驗B","768","legacy","F:\TCU\Lecture\Experimental_Psychology\2015Fall\Compatibility\0_preview\quickrun.csv","xpyriment","Interactive Ising","3.0.4","","0","None","space","space","space","space","space","space","space","None","space","2000","4635","9257","309","269","341","757","405","2000","768","legacy","250","experiment","999","odd","NA","2819325","2711252","NA","NA","NA","NA","NA","2805295","2872380","NA","2819322","NA","2421173","2810065","2873993","2872477","NA","2421173","2874993","2822673","2874995","2863322","2869425","2419488","2419800","2420072","2420416","2419080","2417052","2875245","2822926","2875247","2863825","2869428","2875248","2877352","NA","2877250","2877452","2418309","2872380","NA","2819325","NA","2711252","2417051","Hommel2002EXP01","0","20003","10","yes","1024"
"y","no","yes","circle","0","0","2000","2000","black","no","xpyriment","legacy","green","red","yellow","blue","legacy","0","uniform","0","0","z","NA","0","3","NA","NA","0","NA","3","1","74","0","0","0","0","0","74","74","0","0","74","74","74","74","74","0","0","0","0","0","0","74","74","74","74","74","74","74","74","74","74","0","74","NA","0","NA","3","0","12/24/15 15:19:50","Default description","no","chinese-japanese-korean","no","18","white","開始實驗B","768","legacy","F:\TCU\Lecture\Experimental_Psychology\2015Fall\Compatibility\0_preview\quickrun.csv","xpyriment","Interactive Ising","3.0.4","","0","None","space","space","space","space","space","space","space","None","space","2000","4635","9257","309","269","341","757","405","2000","768","legacy","250","experiment","999","odd","NA","2819325","2711252","NA","NA","NA","NA","NA","2805295","2878189","NA","2819322","NA","2421173","2810065","2879824","2878307","NA","2421173","2880825","2880827","2874995","2863322","2869425","2419488","2419800","2420072","2420416","2419080","2417052","2881078","2881080","2875247","2863825","2869428","2881081","2883185","NA","2883083","2883285","2418309","2878189","NA","2819325","NA","2711252","2417051","Hommel2002EXP01","0","22003","11","yes","1024"
"y","no","yes","circle","0","0","2000","2000","black","no","xpyriment","legacy","yellow","green","red","blue","legacy","0","uniform","0","0","z","NA","0","3","NA","NA","0","NA","3","1","75","0","0","0","0","0","75","75","0","0","75","75","75","75","75","0","0","0","0","0","0","75","75","75","75","75","75","75","75","75","75","0","75","NA","0","NA","3","0","12/24/15 15:19:50","Default description","no","chinese-japanese-korean","no","18","white","開始實驗B","768","legacy","F:\TCU\Lecture\Experimental_Psychology\2015Fall\Compatibility\0_preview\quickrun.csv","xpyriment","Interactive Ising","3.0.4","","0","None","space","space","space","space","space","space","space","None","space","2000","4635","9257","309","269","341","757","405","2000","768","legacy","0","experiment","999","odd","NA","2819325","2711252","NA","NA","NA","NA","NA","2805295","2884011","NA","2819322","NA","2421173","2810065","2885644","2884124","NA","2421173","2886644","2886646","2874995","2863322","2869425","2419488","2419800","2420072","2420416","2419080","2417052","2886647","2886649","2875247","2863825","2869428","2886650","2888754","NA","2888652","2888854","2418309","2884011","NA","2819325","NA","2711252","2417051","Hommel2002EXP01","0","24003","12","yes","1024"
"n","no","yes","circle","0","0","2000","2000","black","no","xpyriment","legacy","green","red","blue","yellow","legacy","0","uniform","0","0","z","NA","0","3","NA","NA","0","NA","3","1","76","0","0","0","0","0","76","76","0","0","76","76","76","76","76","0","0","0","0","0","0","76","76","76","76","76","76","76","76","76","76","0","76","NA","0","NA","3","0","12/24/15 15:19:50","Default description","no","chinese-japanese-korean","no","18","white","開始實驗B","768","legacy","F:\TCU\Lecture\Experimental_Psychology\2015Fall\Compatibility\0_preview\quickrun.csv","xpyriment","Interactive Ising","3.0.4","","0","None","space","space","space","space","space","space","space","None","space","2000","4635","9257","309","269","341","757","405","2000","768","legacy","0","experiment","999","odd","NA","2819325","2711252","NA","NA","NA","NA","NA","2805295","2889614","NA","2819322","NA","2421173","2810065","2891261","2889749","NA","2421173","2892261","2886646","2892263","2863322","2869425","2419488","2419800","2420072","2420416","2419080","2417052","2892263","2886649","2892265","2863825","2869428","2892265","2894369","NA","2894267","2894469","2418309","2889614","NA","2819325","NA","2711252","2417051","Hommel2002EXP01","0","26003","13","yes","1024"
"n","no","yes","rect","0","0","2000","2000","black","no","xpyriment","legacy","blue","green","yellow","red","legacy","0","uniform","0","0","/","NA","0","3","NA","NA","0","NA","3","1","77","0","0","0","0","0","77","77","0","0","77","77","77","77","77","0","0","0","0","0","0","77","77","77","77","77","77","77","77","77","77","0","77","NA","0","NA","3","0","12/24/15 15:19:50","Default description","no","chinese-japanese-korean","no","18","white","開始實驗B","768","legacy","F:\TCU\Lecture\Experimental_Psychology\2015Fall\Compatibility\0_preview\quickrun.csv","xpyriment","Interactive Ising","3.0.4","","0","None","space","space","space","space","space","space","space","None","space","2000","4635","9257","309","269","341","757","405","2000","768","legacy","500","experiment","999","odd","NA","2819325","2711252","NA","NA","NA","NA","NA","2805295","2895237","NA","2819322","NA","2421173","2810065","2896849","2895347","NA","2421173","2897849","2886646","2892263","2863322","2897851","2419488","2419800","2420072","2420416","2419080","2417052","2898352","2886649","2892265","2863825","2898354","2898355","2900459","NA","2900357","2900559","2418309","2895237","NA","2819325","NA","2711252","2417051","Hommel2002EXP01","0","28003","14","yes","1024"
"y","no","yes","circle","0","0","2000","2000","black","no","xpyriment","legacy","yellow","green","blue","red","legacy","0","uniform","0","0","z","NA","0","3","NA","NA","0","NA","3","1","78","0","0","0","0","0","78","78","0","0","78","78","78","78","78","0","0","0","0","0","0","78","78","78","78","78","78","78","78","78","78","0","78","NA","0","NA","3","0","12/24/15 15:19:50","Default description","no","chinese-japanese-korean","no","18","white","開始實驗B","768","legacy","F:\TCU\Lecture\Experimental_Psychology\2015Fall\Compatibility\0_preview\quickrun.csv","xpyriment","Interactive Ising","3.0.4","","0","None","space","space","space","space","space","space","space","None","space","2000","4635","9257","309","269","341","757","405","2000","768","legacy","0","experiment","999","odd","NA","2819325","2711252","NA","NA","NA","NA","NA","2805295","2901337","NA","2819322","NA","2421173","2810065","2902949","2901428","NA","2421173","2903949","2903951","2892263","2863322","2897851","2419488","2419800","2420072","2420416","2419080","2417052","2903952","2903955","2892265","2863825","2898354","2903955","2906059","NA","2905957","2906159","2418309","2901337","NA","2819325","NA","2711252","2417051","Hommel2002EXP01","0","30003","15","yes","1024"
