"Compatibility","EXPA","EXPB","Shape","acc","accuracy","average_response_time","avg_rt","background","bidi","canvas_backend","clock_backend","color1","color2","color3","color4","color_backend","compensation","coordinates","correct","correct_Target_response","correct_response","count_Block_EXPERIMENT_A","count_Block_EXPERIMENT_B","count_Block_Parctice_B","count_Block_Practice_A","count_Block_reset_EXPERIMENT_A","count_Block_reset_EXPERIMENT_B","count_Block_reset_Practice_A","count_Block_reset_Practice_B","count_Decide_Color","count_EXPERIMENT_A","count_EXPERIMENT_B","count_EXP_A","count_EXP_B","count_Feedback","count_Initial","count_Intertrial","count_Practice_A","count_Practice_B","count_Prepare","count_Prepare_circle_compatible","count_Prepare_circle_incompatible","count_Prepare_rect_compatible","count_Prepare_rect_incompatible","count_Procedure_Ins01","count_Procedure_Ins02","count_Procedure_Ins03","count_Ready","count_Response_Ins","count_Select_Experiment","count_Target","count_Target_circle_compatible","count_Target_circle_incompatible","count_Target_rect_compatible","count_Target_rect_incompatible","count_Target_response","count_Target_response_BadResponse","count_Target_response_Correct","count_Target_response_Wrong","count_Target_response_logger","count_Title","count_Trial","count_Trial_EXPERIMENT_A","count_Trial_EXPERIMENT_B","count_Trial_Practice_A","count_Trial_Practice_B","count_experiment","datetime","description","font_bold","font_family","font_italic","font_size","foreground","form_response","height","keyboard_backend","logfile","mouse_backend","opensesame_codename","opensesame_version","practice","repeat_cycle","response","response_Feedback","response_Procedure_Ins01","response_Procedure_Ins02","response_Procedure_Ins03","response_Ready","response_Response_Ins","response_Target_response","response_Title","response_time","response_time_Feedback","response_time_Procedure_Ins01","response_time_Procedure_Ins02","response_time_Procedure_Ins03","response_time_Ready","response_time_Response_Ins","response_time_Target_response","response_time_Title","sampler_backend","soa","start","subject_nr","subject_parity","time_Block_EXPERIMENT_A","time_Block_EXPERIMENT_B","time_Block_Parctice_B","time_Block_Practice_A","time_Block_reset_EXPERIMENT_A","time_Block_reset_EXPERIMENT_B","time_Block_reset_Practice_A","time_Block_reset_Practice_B","time_Decide_Color","time_EXPERIMENT_A","time_EXPERIMENT_B","time_EXP_A","time_EXP_B","time_Feedback","time_Initial","time_Intertrial","time_Practice_A","time_Practice_B","time_Prepare","time_Prepare_circle_compatible","time_Prepare_circle_incompatible","time_Prepare_rect_compatible","time_Prepare_rect_incompatible","time_Procedure_Ins01","time_Procedure_Ins02","time_Procedure_Ins03","time_Ready","time_Response_Ins","time_Select_Experiment","time_Target","time_Target_circle_compatible","time_Target_circle_incompatible","time_Target_rect_compatible","time_Target_rect_incompatible","time_Target_response","time_Target_response_BadResponse","time_Target_response_Correct","time_Target_response_Wrong","time_Target_response_logger","time_Title","time_Trial","time_Trial_EXPERIMENT_A","time_Trial_EXPERIMENT_B","time_Trial_Practice_A","time_Trial_Practice_B","time_experiment","title","total_correct","total_response_time","total_responses","uniform_coordinates","width"
"n","yes","no","rect","0","0","2000","2000","black","no","xpyriment","legacy","blue","yellow","green","red","legacy","0","uniform","0","0","/","NA","NA","NA","0","NA","NA","0","NA","0","0","0","0","0","NA","0","0","0","0","0","0","0","0","0","0","0","0","0","0","0","0","0","0","0","0","0","0","0","0","0","0","0","NA","NA","0","NA","0","12/24/15 14:39:33","Default description","no","chinese-japanese-korean","no","18","white","開始實驗A","768","legacy","F:\TCU\Lecture\Experimental_Psychology\2015Fall\Compatibility\0_preview\quickrun.csv","xpyriment","Interactive Ising","3.0.4","yes","0","None","NA","space","space","space","space","space","None","space","2000","NA","285","213","365","813","1166","2000","1372","legacy","500","experiment","999","odd","NA","NA","NA","8913","NA","NA","NA","NA","9576","NA","NA","8910","NA","NA","11203","9679","8910","NA","12203","NA","NA","NA","12238","7225","7513","7729","8097","6056","2752","12738","NA","NA","NA","12741","12741","14845","NA","14743","14945","4681","9576","NA","NA","8913","NA","2752","Hommel2002EXP01","0","2000","1","yes","1024"
"y","yes","no","rect","0","0","2000","2000","black","no","xpyriment","legacy","blue","red","green","yellow","legacy","0","uniform","0","0","/","NA","NA","NA","0","NA","NA","0","NA","1","0","0","0","0","NA","1","1","0","0","1","1","1","1","1","0","0","0","0","0","0","1","1","1","1","1","1","1","1","1","1","0","1","NA","NA","0","NA","0","12/24/15 14:39:33","Default description","no","chinese-japanese-korean","no","18","white","開始實驗A","768","legacy","F:\TCU\Lecture\Experimental_Psychology\2015Fall\Compatibility\0_preview\quickrun.csv","xpyriment","Interactive Ising","3.0.4","yes","0","None","NA","space","space","space","space","space","None","space","2000","NA","285","213","365","813","1166","2000","1372","legacy","1500","experiment","999","odd","NA","NA","NA","8913","NA","NA","NA","NA","15691","NA","NA","8910","NA","NA","17308","15791","8910","NA","18309","NA","NA","18311","12238","7225","7513","7729","8097","6056","2752","19812","NA","NA","19814","12741","19815","21919","NA","21817","22019","4681","15691","NA","NA","8913","NA","2752","Hommel2002EXP01","0","4000","2","yes","1024"
"y","yes","no","rect","0","0","2000","2000","black","no","xpyriment","legacy","yellow","red","blue","green","legacy","0","uniform","0","0","/","NA","NA","NA","0","NA","NA","0","NA","2","0","0","0","0","NA","2","2","0","0","2","2","2","2","2","0","0","0","0","0","0","2","2","2","2","2","2","2","2","2","2","0","2","NA","NA","0","NA","0","12/24/15 14:39:33","Default description","no","chinese-japanese-korean","no","18","white","開始實驗A","768","legacy","F:\TCU\Lecture\Experimental_Psychology\2015Fall\Compatibility\0_preview\quickrun.csv","xpyriment","Interactive Ising","3.0.4","yes","0","None","NA","space","space","space","space","space","None","space","2000","NA","285","213","365","813","1166","2000","1372","legacy","1000","experiment","999","odd","NA","NA","NA","8913","NA","NA","NA","NA","22747","NA","NA","8910","NA","NA","24364","22846","8910","NA","25365","NA","NA","25368","12238","7225","7513","7729","8097","6056","2752","26368","NA","NA","26370","12741","26371","28475","NA","28373","28575","4681","22747","NA","NA","8913","NA","2752","Hommel2002EXP01","0","6000","3","yes","1024"
"y","yes","no","circle","0","0","2000","2000","black","no","xpyriment","legacy","blue","yellow","red","green","legacy","0","uniform","0","0","z","NA","NA","NA","0","NA","NA","0","NA","3","0","0","0","0","NA","3","3","0","0","3","3","3","3","3","0","0","0","0","0","0","3","3","3","3","3","3","3","3","3","3","0","3","NA","NA","0","NA","0","12/24/15 14:39:33","Default description","no","chinese-japanese-korean","no","18","white","開始實驗A","768","legacy","F:\TCU\Lecture\Experimental_Psychology\2015Fall\Compatibility\0_preview\quickrun.csv","xpyriment","Interactive Ising","3.0.4","yes","0","None","NA","space","space","space","space","space","None","space","2000","NA","285","213","365","813","1166","2000","1372","legacy","1500","experiment","999","odd","NA","NA","NA","8913","NA","NA","NA","NA","29300","NA","NA","8910","NA","NA","30924","29405","8910","NA","31924","31926","NA","25368","12238","7225","7513","7729","8097","6056","2752","33426","33428","NA","26370","12741","33429","35534","NA","35431","35634","4681","29300","NA","NA","8913","NA","2752","Hommel2002EXP01","0","8000","4","yes","1024"
"n","yes","no","rect","0","0","2000","2000","black","no","xpyriment","legacy","blue","yellow","green","red","legacy","0","uniform","0","0","/","NA","NA","NA","0","NA","NA","0","NA","4","0","0","0","0","NA","4","4","0","0","4","4","4","4","4","0","0","0","0","0","0","4","4","4","4","4","4","4","4","4","4","0","4","NA","NA","0","NA","0","12/24/15 14:39:33","Default description","no","chinese-japanese-korean","no","18","white","開始實驗A","768","legacy","F:\TCU\Lecture\Experimental_Psychology\2015Fall\Compatibility\0_preview\quickrun.csv","xpyriment","Interactive Ising","3.0.4","yes","0","None","NA","space","space","space","space","space","None","space","2000","NA","285","213","365","813","1166","2000","1372","legacy","1000","experiment","999","odd","NA","NA","NA","8913","NA","NA","NA","NA","36376","NA","NA","8910","NA","NA","37984","36465","8910","NA","38984","31926","NA","25368","38986","7225","7513","7729","8097","6056","2752","39986","33428","NA","26370","39988","39989","42093","NA","41991","42193","4681","36376","NA","NA","8913","NA","2752","Hommel2002EXP01","0","10000","5","yes","1024"
"n","yes","no","circle","0","0","2000","2000","black","no","xpyriment","legacy","yellow","red","green","blue","legacy","0","uniform","0","0","z","NA","NA","NA","0","NA","NA","0","NA","5","0","0","0","0","NA","5","5","0","0","5","5","5","5","5","0","0","0","0","0","0","5","5","5","5","5","5","5","5","5","5","0","5","NA","NA","0","NA","0","12/24/15 14:39:33","Default description","no","chinese-japanese-korean","no","18","white","開始實驗A","768","legacy","F:\TCU\Lecture\Experimental_Psychology\2015Fall\Compatibility\0_preview\quickrun.csv","xpyriment","Interactive Ising","3.0.4","yes","0","None","NA","space","space","space","space","space","None","space","2000","NA","285","213","365","813","1166","2000","1372","legacy","500","experiment","999","odd","NA","NA","NA","8913","NA","NA","NA","NA","42916","NA","NA","8910","NA","NA","44538","43019","8910","NA","45542","31926","45544","25368","38986","7225","7513","7729","8097","6056","2752","46044","33428","46046","26370","39988","46047","48151","NA","48049","48251","4681","42916","NA","NA","8913","NA","2752","Hommel2002EXP01","0","12000","6","yes","1024"
"n","yes","no","circle","0","0","2000","2000","black","no","xpyriment","legacy","green","red","blue","yellow","legacy","0","uniform","0","0","z","NA","NA","NA","0","NA","NA","0","NA","6","0","0","0","0","NA","6","6","0","0","6","6","6","6","6","0","0","0","0","0","0","6","6","6","6","6","6","6","6","6","6","0","6","NA","NA","0","NA","0","12/24/15 14:39:33","Default description","no","chinese-japanese-korean","no","18","white","開始實驗A","768","legacy","F:\TCU\Lecture\Experimental_Psychology\2015Fall\Compatibility\0_preview\quickrun.csv","xpyriment","Interactive Ising","3.0.4","yes","0","None","NA","space","space","space","space","space","None","space","2000","NA","285","213","365","813","1166","2000","1372","legacy","1000","experiment","999","odd","NA","NA","NA","8913","NA","NA","NA","NA","48985","NA","NA","8910","NA","NA","50610","49095","8910","NA","51610","31926","51612","25368","38986","7225","7513","7729","8097","6056","2752","52613","33428","52615","26370","39988","52616","54720","NA","54618","54820","4681","48984","NA","NA","8913","NA","2752","Hommel2002EXP01","0","14000","7","yes","1024"
"y","yes","no","circle","0","0","2000","2000","black","no","xpyriment","legacy","yellow","blue","green","red","legacy","0","uniform","0","0","z","NA","NA","NA","0","NA","NA","0","NA","7","0","0","0","0","NA","7","7","0","0","7","7","7","7","7","0","0","0","0","0","0","7","7","7","7","7","7","7","7","7","7","0","7","NA","NA","0","NA","0","12/24/15 14:39:33","Default description","no","chinese-japanese-korean","no","18","white","開始實驗A","768","legacy","F:\TCU\Lecture\Experimental_Psychology\2015Fall\Compatibility\0_preview\quickrun.csv","xpyriment","Interactive Ising","3.0.4","yes","0","None","NA","space","space","space","space","space","None","space","2001","NA","285","213","365","813","1166","2001","1372","legacy","0","experiment","999","odd","NA","NA","NA","8913","NA","NA","NA","NA","55549","NA","NA","8910","NA","NA","57190","55672","8910","NA","58190","58192","51612","25368","38986","7225","7513","7729","8097","6056","2752","58193","58195","52615","26370","39988","58195","60300","NA","60198","60400","4681","55549","NA","NA","8913","NA","2752","Hommel2002EXP01","0","16001","8","yes","1024"
"n","yes","no","circle","0","0","2000","2000","black","no","xpyriment","legacy","green","blue","red","yellow","legacy","0","uniform","0","0","z","NA","NA","NA","0","NA","NA","0","NA","8","0","0","0","0","NA","8","8","0","0","8","8","8","8","8","0","0","0","0","0","0","8","8","8","8","8","8","8","8","8","8","0","8","NA","NA","0","NA","0","12/24/15 14:39:33","Default description","no","chinese-japanese-korean","no","18","white","開始實驗A","768","legacy","F:\TCU\Lecture\Experimental_Psychology\2015Fall\Compatibility\0_preview\quickrun.csv","xpyriment","Interactive Ising","3.0.4","yes","0","None","NA","space","space","space","space","space","None","space","2001","NA","285","213","365","813","1166","2001","1372","legacy","0","experiment","999","odd","NA","NA","NA","8913","NA","NA","NA","NA","61138","NA","NA","8910","NA","NA","62779","61264","8910","NA","63779","58192","63781","25368","38986","7225","7513","7729","8097","6056","2752","63782","58195","63784","26370","39988","63784","65889","NA","65787","65989","4681","61138","NA","NA","8913","NA","2752","Hommel2002EXP01","0","18002","9","yes","1024"
"y","yes","no","circle","0","0","2000","2000","black","no","xpyriment","legacy","yellow","red","blue","green","legacy","0","uniform","0","0","z","NA","NA","NA","0","NA","NA","0","NA","9","0","0","0","0","NA","9","9","0","0","9","9","9","9","9","0","0","0","0","0","0","9","9","9","9","9","9","9","9","9","9","0","9","NA","NA","0","NA","0","12/24/15 14:39:33","Default description","no","chinese-japanese-korean","no","18","white","開始實驗A","768","legacy","F:\TCU\Lecture\Experimental_Psychology\2015Fall\Compatibility\0_preview\quickrun.csv","xpyriment","Interactive Ising","3.0.4","yes","0","None","NA","space","space","space","space","space","None","space","2000","NA","285","213","365","813","1166","2000","1372","legacy","1500","experiment","999","odd","NA","NA","NA","8913","NA","NA","NA","NA","66760","NA","NA","8910","NA","NA","68403","66901","8910","NA","69403","69405","63781","25368","38986","7225","7513","7729","8097","6056","2752","70905","70908","63784","26370","39988","70908","73012","NA","72910","73112","4681","66760","NA","NA","8913","NA","2752","Hommel2002EXP01","0","20002","10","yes","1024"
"n","yes","no","circle","0","0","2000","2000","black","no","xpyriment","legacy","red","green","blue","yellow","legacy","0","uniform","0","0","z","NA","NA","NA","0","NA","NA","0","NA","10","0","0","0","0","NA","10","10","0","0","10","10","10","10","10","0","0","0","0","0","0","10","10","10","10","10","10","10","10","10","10","0","10","NA","NA","0","NA","0","12/24/15 14:39:33","Default description","no","chinese-japanese-korean","no","18","white","開始實驗A","768","legacy","F:\TCU\Lecture\Experimental_Psychology\2015Fall\Compatibility\0_preview\quickrun.csv","xpyriment","Interactive Ising","3.0.4","yes","0","None","NA","space","space","space","space","space","None","space","2001","NA","285","213","365","813","1166","2001","1372","legacy","500","experiment","999","odd","NA","NA","NA","8913","NA","NA","NA","NA","73860","NA","NA","8910","NA","NA","75448","73933","8910","NA","76449","69405","76451","25368","38986","7225","7513","7729","8097","6056","2752","76951","70908","76953","26370","39988","76953","79058","NA","78956","79158","4681","73860","NA","NA","8913","NA","2752","Hommel2002EXP01","0","22003","11","yes","1024"
"n","yes","no","rect","0","0","2000","2000","black","no","xpyriment","legacy","yellow","blue","green","red","legacy","0","uniform","0","0","/","NA","NA","NA","0","NA","NA","0","NA","11","0","0","0","0","NA","11","11","0","0","11","11","11","11","11","0","0","0","0","0","0","11","11","11","11","11","11","11","11","11","11","0","11","NA","NA","0","NA","0","12/24/15 14:39:33","Default description","no","chinese-japanese-korean","no","18","white","開始實驗A","768","legacy","F:\TCU\Lecture\Experimental_Psychology\2015Fall\Compatibility\0_preview\quickrun.csv","xpyriment","Interactive Ising","3.0.4","yes","0","None","NA","space","space","space","space","space","None","space","2000","NA","285","213","365","813","1166","2000","1372","legacy","1500","experiment","999","odd","NA","NA","NA","8913","NA","NA","NA","NA","79904","NA","NA","8910","NA","NA","81519","80004","8910","NA","82520","69405","76451","25368","82522","7225","7513","7729","8097","6056","2752","84023","70908","76953","26370","84026","84026","86130","NA","86028","86230","4681","79904","NA","NA","8913","NA","2752","Hommel2002EXP01","0","24003","12","yes","1024"
"y","yes","no","rect","0","0","2000","2000","black","no","xpyriment","legacy","green","yellow","red","blue","legacy","0","uniform","0","0","/","NA","NA","NA","0","NA","NA","0","NA","12","0","0","0","0","NA","12","12","0","0","12","12","12","12","12","0","0","0","0","0","0","12","12","12","12","12","12","12","12","12","12","0","12","NA","NA","0","NA","0","12/24/15 14:39:33","Default description","no","chinese-japanese-korean","no","18","white","開始實驗A","768","legacy","F:\TCU\Lecture\Experimental_Psychology\2015Fall\Compatibility\0_preview\quickrun.csv","xpyriment","Interactive Ising","3.0.4","yes","0","None","NA","space","space","space","space","space","None","space","2000","NA","285","213","365","813","1166","2000","1372","legacy","1500","experiment","999","odd","NA","NA","NA","8913","NA","NA","NA","NA","86961","NA","NA","8910","NA","NA","88581","87063","8910","NA","89581","69405","76451","89583","82522","7225","7513","7729","8097","6056","2752","91084","70908","76953","91087","84026","91087","93191","NA","93089","93291","4681","86961","NA","NA","8913","NA","2752","Hommel2002EXP01","0","26003","13","yes","1024"
"y","yes","no","rect","0","0","2000","2000","black","no","xpyriment","legacy","green","blue","yellow","red","legacy","0","uniform","0","0","/","NA","NA","NA","0","NA","NA","0","NA","13","0","0","0","0","NA","13","13","0","0","13","13","13","13","13","0","0","0","0","0","0","13","13","13","13","13","13","13","13","13","13","0","13","NA","NA","0","NA","0","12/24/15 14:39:33","Default description","no","chinese-japanese-korean","no","18","white","開始實驗A","768","legacy","F:\TCU\Lecture\Experimental_Psychology\2015Fall\Compatibility\0_preview\quickrun.csv","xpyriment","Interactive Ising","3.0.4","yes","0","None","NA","space","space","space","space","space","None","space","2001","NA","285","213","365","813","1166","2001","1372","legacy","0","experiment","999","odd","NA","NA","NA","8913","NA","NA","NA","NA","94010","NA","NA","8910","NA","NA","95639","94121","8910","NA","96639","69405","76451","96641","82522","7225","7513","7729","8097","6056","2752","96642","70908","76953","96644","84026","96644","98749","NA","98647","98849","4681","94010","NA","NA","8913","NA","2752","Hommel2002EXP01","0","28004","14","yes","1024"
"y","yes","no","circle","0","0","2000","2000","black","no","xpyriment","legacy","yellow","blue","green","red","legacy","0","uniform","0","0","z","NA","NA","NA","0","NA","NA","0","NA","14","0","0","0","0","NA","14","14","0","0","14","14","14","14","14","0","0","0","0","0","0","14","14","14","14","14","14","14","14","14","14","0","14","NA","NA","0","NA","0","12/24/15 14:39:33","Default description","no","chinese-japanese-korean","no","18","white","開始實驗A","768","legacy","F:\TCU\Lecture\Experimental_Psychology\2015Fall\Compatibility\0_preview\quickrun.csv","xpyriment","Interactive Ising","3.0.4","yes","0","None","NA","space","space","space","space","space","None","space","2000","NA","285","213","365","813","1166","2000","1372","legacy","1000","experiment","999","odd","NA","NA","NA","8913","NA","NA","NA","NA","99576","NA","NA","8910","NA","NA","101217","99699","8910","NA","102217","102219","76451","96641","82522","7225","7513","7729","8097","6056","2752","103219","103221","76953","96644","84026","103222","105326","NA","105224","105426","4681","99576","NA","NA","8913","NA","2752","Hommel2002EXP01","0","30004","15","yes","1024"
"y","yes","no","circle","0","0","2000","2000","black","no","xpyriment","legacy","red","green","yellow","blue","legacy","0","uniform","0","0","z","NA","NA","NA","0","NA","NA","0","NA","15","0","0","0","0","NA","15","15","0","0","15","15","15","15","15","0","0","0","0","0","0","15","15","15","15","15","15","15","15","15","15","0","15","NA","NA","0","NA","0","12/24/15 14:39:33","Default description","no","chinese-japanese-korean","no","18","white","開始實驗A","768","legacy","F:\TCU\Lecture\Experimental_Psychology\2015Fall\Compatibility\0_preview\quickrun.csv","xpyriment","Interactive Ising","3.0.4","yes","0","None","NA","space","space","space","space","space","None","space","2000","NA","285","213","365","813","1166","2000","1372","legacy","500","experiment","999","odd","NA","NA","NA","8913","NA","NA","NA","NA","106154","NA","NA","8910","NA","NA","107800","106282","8910","NA","108800","108802","76451","96641","82522","7225","7513","7729","8097","6056","2752","109302","109304","76953","96644","84026","109305","111409","NA","111307","111509","4681","106154","NA","NA","8913","NA","2752","Hommel2002EXP01","0","32004","16","yes","1024"
"y","yes","no","rect","0","0","2000","2000","black","no","xpyriment","legacy","green","blue","yellow","red","legacy","0","uniform","0","0","/","NA","NA","NA","0","NA","NA","0","NA","16","0","0","0","0","NA","16","16","0","0","16","16","16","16","16","0","0","0","0","0","0","16","16","16","16","16","16","16","16","16","16","0","16","NA","NA","0","NA","0","12/24/15 14:39:33","Default description","no","chinese-japanese-korean","no","18","white","開始實驗A","768","legacy","F:\TCU\Lecture\Experimental_Psychology\2015Fall\Compatibility\0_preview\quickrun.csv","xpyriment","Interactive Ising","3.0.4","yes","0","None","NA","space","space","space","space","space","None","space","2000","NA","285","213","365","813","1166","2000","1372","legacy","1000","experiment","999","odd","NA","NA","NA","8913","NA","NA","NA","NA","112302","NA","NA","8910","NA","NA","113968","112466","8910","NA","114968","108802","76451","114970","82522","7225","7513","7729","8097","6056","2752","115971","109304","76953","115973","84026","115974","118078","NA","117976","118178","4681","112302","NA","NA","8913","NA","2752","Hommel2002EXP01","0","34004","17","yes","1024"
"y","yes","no","circle","0","0","2000","2000","black","no","xpyriment","legacy","green","blue","red","yellow","legacy","0","uniform","0","0","z","NA","NA","NA","0","NA","NA","0","NA","17","0","0","0","0","NA","17","17","0","0","17","17","17","17","17","0","0","0","0","0","0","17","17","17","17","17","17","17","17","17","17","0","17","NA","NA","0","NA","0","12/24/15 14:39:33","Default description","no","chinese-japanese-korean","no","18","white","開始實驗A","768","legacy","F:\TCU\Lecture\Experimental_Psychology\2015Fall\Compatibility\0_preview\quickrun.csv","xpyriment","Interactive Ising","3.0.4","yes","0","None","NA","space","space","space","space","space","None","space","2000","NA","285","213","365","813","1166","2000","1372","legacy","0","experiment","999","odd","NA","NA","NA","8913","NA","NA","NA","NA","118955","NA","NA","8910","NA","NA","120538","119030","8910","NA","121539","121541","76451","114970","82522","7225","7513","7729","8097","6056","2752","121542","121544","76953","115973","84026","121545","123649","NA","123547","123749","4681","118955","NA","NA","8913","NA","2752","Hommel2002EXP01","0","36004","18","yes","1024"
"y","yes","no","circle","0","0","2000","2000","black","no","xpyriment","legacy","red","yellow","blue","green","legacy","0","uniform","0","0","z","NA","NA","NA","0","NA","NA","0","NA","18","0","0","0","0","NA","18","18","0","0","18","18","18","18","18","0","0","0","0","0","0","18","18","18","18","18","18","18","18","18","18","0","18","NA","NA","0","NA","0","12/24/15 14:39:33","Default description","no","chinese-japanese-korean","no","18","white","開始實驗A","768","legacy","F:\TCU\Lecture\Experimental_Psychology\2015Fall\Compatibility\0_preview\quickrun.csv","xpyriment","Interactive Ising","3.0.4","yes","0","None","NA","space","space","space","space","space","None","space","2000","NA","285","213","365","813","1166","2000","1372","legacy","500","experiment","999","odd","NA","NA","NA","8913","NA","NA","NA","NA","124477","NA","NA","8910","NA","NA","126109","124569","8910","NA","127109","127111","76451","114970","82522","7225","7513","7729","8097","6056","2752","127611","127614","76953","115973","84026","127614","129718","NA","129616","129818","4681","124477","NA","NA","8913","NA","2752","Hommel2002EXP01","0","38004","19","yes","1024"
"n","yes","no","rect","0","0","2000","2000","black","no","xpyriment","legacy","green","yellow","blue","red","legacy","0","uniform","0","0","/","NA","NA","NA","0","NA","NA","0","NA","19","0","0","0","0","NA","19","19","0","0","19","19","19","19","19","0","0","0","0","0","0","19","19","19","19","19","19","19","19","19","19","0","19","NA","NA","0","NA","0","12/24/15 14:39:33","Default description","no","chinese-japanese-korean","no","18","white","開始實驗A","768","legacy","F:\TCU\Lecture\Experimental_Psychology\2015Fall\Compatibility\0_preview\quickrun.csv","xpyriment","Interactive Ising","3.0.4","yes","0","None","NA","space","space","space","space","space","None","space","2000","NA","285","213","365","813","1166","2000","1372","legacy","1000","experiment","999","odd","NA","NA","NA","8913","NA","NA","NA","NA","130543","NA","NA","8910","NA","NA","132155","130640","8910","NA","133156","127111","76451","114970","133158","7225","7513","7729","8097","6056","2752","134158","127614","76953","115973","134160","134160","136264","NA","136162","136364","4681","130543","NA","NA","8913","NA","2752","Hommel2002EXP01","0","40004","20","yes","1024"
"n","yes","no","circle","0","0","2000","2000","black","no","xpyriment","legacy","yellow","red","green","blue","legacy","0","uniform","0","0","z","NA","NA","NA","0","NA","NA","0","NA","20","0","0","0","0","NA","20","20","0","0","20","20","20","20","20","0","0","0","0","0","0","20","20","20","20","20","20","20","20","20","20","0","20","NA","NA","0","NA","0","12/24/15 14:39:33","Default description","no","chinese-japanese-korean","no","18","white","開始實驗A","768","legacy","F:\TCU\Lecture\Experimental_Psychology\2015Fall\Compatibility\0_preview\quickrun.csv","xpyriment","Interactive Ising","3.0.4","yes","0","None","NA","space","space","space","space","space","None","space","2000","NA","285","213","365","813","1166","2000","1372","legacy","1000","experiment","999","odd","NA","NA","NA","8913","NA","NA","NA","NA","137095","NA","NA","8910","NA","NA","138733","137218","8910","NA","139733","127111","139735","114970","133158","7225","7513","7729","8097","6056","2752","140735","127614","140737","115973","134160","140738","142843","NA","142741","142943","4681","137095","NA","NA","8913","NA","2752","Hommel2002EXP01","0","42004","21","yes","1024"
"y","yes","no","rect","0","0","2000","2000","black","no","xpyriment","legacy","yellow","green","red","blue","legacy","0","uniform","0","0","/","NA","NA","NA","0","NA","NA","0","NA","21","0","0","0","0","NA","21","21","0","0","21","21","21","21","21","0","0","0","0","0","0","21","21","21","21","21","21","21","21","21","21","0","21","NA","NA","0","NA","0","12/24/15 14:39:33","Default description","no","chinese-japanese-korean","no","18","white","開始實驗A","768","legacy","F:\TCU\Lecture\Experimental_Psychology\2015Fall\Compatibility\0_preview\quickrun.csv","xpyriment","Interactive Ising","3.0.4","yes","0","None","NA","space","space","space","space","space","None","space","2000","NA","285","213","365","813","1166","2000","1372","legacy","500","experiment","999","odd","NA","NA","NA","8913","NA","NA","NA","NA","143852","NA","NA","8910","NA","NA","145491","143976","8910","NA","146491","127111","139735","146493","133158","7225","7513","7729","8097","6056","2752","146994","127614","140737","146996","134160","146997","149101","NA","148999","149201","4681","143852","NA","NA","8913","NA","2752","Hommel2002EXP01","0","44004","22","yes","1024"
"n","yes","no","rect","0","0","2000","2000","black","no","xpyriment","legacy","green","red","blue","yellow","legacy","0","uniform","0","0","/","NA","NA","NA","0","NA","NA","0","NA","22","0","0","0","0","NA","22","22","0","0","22","22","22","22","22","0","0","0","0","0","0","22","22","22","22","22","22","22","22","22","22","0","22","NA","NA","0","NA","0","12/24/15 14:39:33","Default description","no","chinese-japanese-korean","no","18","white","開始實驗A","768","legacy","F:\TCU\Lecture\Experimental_Psychology\2015Fall\Compatibility\0_preview\quickrun.csv","xpyriment","Interactive Ising","3.0.4","yes","0","None","NA","space","space","space","space","space","None","space","2000","NA","285","213","365","813","1166","2000","1372","legacy","1500","experiment","999","odd","NA","NA","NA","8913","NA","NA","NA","NA","149970","NA","NA","8910","NA","NA","151645","150143","8910","NA","152645","127111","139735","146493","152647","7225","7513","7729","8097","6056","2752","154147","127614","140737","146996","154149","154150","156254","NA","156152","156354","4681","149970","NA","NA","8913","NA","2752","Hommel2002EXP01","0","46004","23","yes","1024"
"y","yes","no","circle","0","0","2000","2000","black","no","xpyriment","legacy","blue","yellow","red","green","legacy","0","uniform","0","0","z","NA","NA","NA","0","NA","NA","0","NA","23","0","0","0","0","NA","23","23","0","0","23","23","23","23","23","0","0","0","0","0","0","23","23","23","23","23","23","23","23","23","23","0","23","NA","NA","0","NA","0","12/24/15 14:39:33","Default description","no","chinese-japanese-korean","no","18","white","開始實驗A","768","legacy","F:\TCU\Lecture\Experimental_Psychology\2015Fall\Compatibility\0_preview\quickrun.csv","xpyriment","Interactive Ising","3.0.4","yes","0","None","NA","space","space","space","space","space","None","space","2000","NA","285","213","365","813","1166","2000","1372","legacy","1000","experiment","999","odd","NA","NA","NA","8913","NA","NA","NA","NA","157130","NA","NA","8910","NA","NA","158719","157204","8910","NA","159720","159722","139735","146493","152647","7225","7513","7729","8097","6056","2752","160723","160725","140737","146996","154149","160726","162830","NA","162728","162930","4681","157130","NA","NA","8913","NA","2752","Hommel2002EXP01","0","48004","24","yes","1024"
"n","yes","no","circle","0","0","2000","2000","black","no","xpyriment","legacy","red","yellow","blue","green","legacy","0","uniform","0","0","z","NA","NA","NA","0","NA","NA","0","NA","24","0","0","0","0","NA","24","24","0","0","24","24","24","24","24","0","0","0","0","0","0","24","24","24","24","24","24","24","24","24","24","0","24","NA","NA","0","NA","0","12/24/15 14:39:33","Default description","no","chinese-japanese-korean","no","18","white","開始實驗A","768","legacy","F:\TCU\Lecture\Experimental_Psychology\2015Fall\Compatibility\0_preview\quickrun.csv","xpyriment","Interactive Ising","3.0.4","yes","0","None","NA","space","space","space","space","space","None","space","2000","NA","285","213","365","813","1166","2000","1372","legacy","1500","experiment","999","odd","NA","NA","NA","8913","NA","NA","NA","NA","163827","NA","NA","8910","NA","NA","165440","163921","8910","NA","166440","159722","166442","146493","152647","7225","7513","7729","8097","6056","2752","167942","160725","167944","146996","154149","167945","170049","NA","169947","170149","4681","163827","NA","NA","8913","NA","2752","Hommel2002EXP01","0","50004","25","yes","1024"
"n","yes","no","circle","0","0","2000","2000","black","no","xpyriment","legacy","red","green","blue","yellow","legacy","0","uniform","0","0","z","NA","NA","NA","0","NA","NA","0","NA","25","0","0","0","0","NA","25","25","0","0","25","25","25","25","25","0","0","0","0","0","0","25","25","25","25","25","25","25","25","25","25","0","25","NA","NA","0","NA","0","12/24/15 14:39:33","Default description","no","chinese-japanese-korean","no","18","white","開始實驗A","768","legacy","F:\TCU\Lecture\Experimental_Psychology\2015Fall\Compatibility\0_preview\quickrun.csv","xpyriment","Interactive Ising","3.0.4","yes","0","None","NA","space","space","space","space","space","None","space","2000","NA","285","213","365","813","1166","2000","1372","legacy","1500","experiment","999","odd","NA","NA","NA","8913","NA","NA","NA","NA","170873","NA","NA","8910","NA","NA","172494","170978","8910","NA","173495","159722","173497","146493","152647","7225","7513","7729","8097","6056","2752","174997","160725","174999","146996","154149","175000","177104","NA","177002","177204","4681","170873","NA","NA","8913","NA","2752","Hommel2002EXP01","0","52004","26","yes","1024"
"n","yes","no","rect","0","0","2000","2000","black","no","xpyriment","legacy","green","yellow","blue","red","legacy","0","uniform","0","0","/","NA","NA","NA","0","NA","NA","0","NA","26","0","0","0","0","NA","26","26","0","0","26","26","26","26","26","0","0","0","0","0","0","26","26","26","26","26","26","26","26","26","26","0","26","NA","NA","0","NA","0","12/24/15 14:39:33","Default description","no","chinese-japanese-korean","no","18","white","開始實驗A","768","legacy","F:\TCU\Lecture\Experimental_Psychology\2015Fall\Compatibility\0_preview\quickrun.csv","xpyriment","Interactive Ising","3.0.4","yes","0","None","NA","space","space","space","space","space","None","space","2000","NA","285","213","365","813","1166","2000","1372","legacy","0","experiment","999","odd","NA","NA","NA","8913","NA","NA","NA","NA","177938","NA","NA","8910","NA","NA","179570","178055","8910","NA","180570","159722","173497","146493","180572","7225","7513","7729","8097","6056","2752","180573","160725","174999","146996","180575","180575","182679","NA","182577","182779","4681","177938","NA","NA","8913","NA","2752","Hommel2002EXP01","0","54004","27","yes","1024"
"n","yes","no","rect","0","0","2000","2000","black","no","xpyriment","legacy","yellow","green","red","blue","legacy","0","uniform","0","0","/","NA","NA","NA","0","NA","NA","0","NA","27","0","0","0","0","NA","27","27","0","0","27","27","27","27","27","0","0","0","0","0","0","27","27","27","27","27","27","27","27","27","27","0","27","NA","NA","0","NA","0","12/24/15 14:39:33","Default description","no","chinese-japanese-korean","no","18","white","開始實驗A","768","legacy","F:\TCU\Lecture\Experimental_Psychology\2015Fall\Compatibility\0_preview\quickrun.csv","xpyriment","Interactive Ising","3.0.4","yes","0","None","NA","space","space","space","space","space","None","space","2000","NA","285","213","365","813","1166","2000","1372","legacy","500","experiment","999","odd","NA","NA","NA","8913","NA","NA","NA","NA","183506","NA","NA","8910","NA","NA","185149","183631","8910","NA","186149","159722","173497","146493","186151","7225","7513","7729","8097","6056","2752","186652","160725","174999","146996","186655","186655","188761","NA","188659","188861","4681","183506","NA","NA","8913","NA","2752","Hommel2002EXP01","0","56004","28","yes","1024"
"n","yes","no","circle","0","0","2000","2000","black","no","xpyriment","legacy","blue","yellow","green","red","legacy","0","uniform","0","0","z","NA","NA","NA","0","NA","NA","0","NA","28","0","0","0","0","NA","28","28","0","0","28","28","28","28","28","0","0","0","0","0","0","28","28","28","28","28","28","28","28","28","28","0","28","NA","NA","0","NA","0","12/24/15 14:39:33","Default description","no","chinese-japanese-korean","no","18","white","開始實驗A","768","legacy","F:\TCU\Lecture\Experimental_Psychology\2015Fall\Compatibility\0_preview\quickrun.csv","xpyriment","Interactive Ising","3.0.4","yes","0","None","NA","space","space","space","space","space","None","space","2001","NA","285","213","365","813","1166","2001","1372","legacy","0","experiment","999","odd","NA","NA","NA","8913","NA","NA","NA","NA","189615","NA","NA","8910","NA","NA","191289","189768","8910","NA","192289","159722","192291","146493","186151","7225","7513","7729","8097","6056","2752","192292","160725","192294","146996","186655","192294","194399","NA","194297","194499","4681","189614","NA","NA","8913","NA","2752","Hommel2002EXP01","0","58005","29","yes","1024"
"n","yes","no","rect","0","0","2000","2000","black","no","xpyriment","legacy","red","green","blue","yellow","legacy","0","uniform","0","0","/","NA","NA","NA","0","NA","NA","0","NA","29","0","0","0","0","NA","29","29","0","0","29","29","29","29","29","0","0","0","0","0","0","29","29","29","29","29","29","29","29","29","29","0","29","NA","NA","0","NA","0","12/24/15 14:39:33","Default description","no","chinese-japanese-korean","no","18","white","開始實驗A","768","legacy","F:\TCU\Lecture\Experimental_Psychology\2015Fall\Compatibility\0_preview\quickrun.csv","xpyriment","Interactive Ising","3.0.4","yes","0","None","NA","space","space","space","space","space","None","space","2000","NA","285","213","365","813","1166","2000","1372","legacy","0","experiment","999","odd","NA","NA","NA","8913","NA","NA","NA","NA","195380","NA","NA","8910","NA","NA","197114","195612","8910","NA","198114","159722","192291","146493","198116","7225","7513","7729","8097","6056","2752","198116","160725","192294","146996","198118","198119","200223","NA","200121","200323","4681","195380","NA","NA","8913","NA","2752","Hommel2002EXP01","0","60005","30","yes","1024"
"y","yes","no","rect","0","0","2000","2000","black","no","xpyriment","legacy","green","yellow","red","blue","legacy","0","uniform","0","0","/","NA","NA","NA","0","NA","NA","0","NA","30","0","0","0","0","NA","30","30","0","0","30","30","30","30","30","0","0","0","0","0","0","30","30","30","30","30","30","30","30","30","30","0","30","NA","NA","0","NA","0","12/24/15 14:39:33","Default description","no","chinese-japanese-korean","no","18","white","開始實驗A","768","legacy","F:\TCU\Lecture\Experimental_Psychology\2015Fall\Compatibility\0_preview\quickrun.csv","xpyriment","Interactive Ising","3.0.4","yes","0","None","NA","space","space","space","space","space","None","space","2001","NA","285","213","365","813","1166","2001","1372","legacy","0","experiment","999","odd","NA","NA","NA","8913","NA","NA","NA","NA","201078","NA","NA","8910","NA","NA","202665","201150","8910","NA","203666","159722","192291","203668","198116","7225","7513","7729","8097","6056","2752","203669","160725","192294","203671","198118","203671","205776","NA","205674","205876","4681","201078","NA","NA","8913","NA","2752","Hommel2002EXP01","0","62006","31","yes","1024"
"y","yes","no","rect","0","0","2000","2000","black","no","xpyriment","legacy","blue","green","red","yellow","legacy","0","uniform","0","0","/","NA","NA","NA","0","NA","NA","0","NA","31","0","0","0","0","NA","31","31","0","0","31","31","31","31","31","0","0","0","0","0","0","31","31","31","31","31","31","31","31","31","31","0","31","NA","NA","0","NA","0","12/24/15 14:39:33","Default description","no","chinese-japanese-korean","no","18","white","開始實驗A","768","legacy","F:\TCU\Lecture\Experimental_Psychology\2015Fall\Compatibility\0_preview\quickrun.csv","xpyriment","Interactive Ising","3.0.4","yes","0","None","NA","space","space","space","space","space","None","space","2000","NA","285","213","365","813","1166","2000","1372","legacy","500","experiment","999","odd","NA","NA","NA","8913","NA","NA","NA","NA","206635","NA","NA","8910","NA","NA","208227","206708","8910","NA","209227","159722","192291","209229","198116","7225","7513","7729","8097","6056","2752","209730","160725","192294","209732","198118","209733","211837","NA","211735","211937","4681","206635","NA","NA","8913","NA","2752","Hommel2002EXP01","0","64006","32","yes","1024"
"n","yes","no","rect","0","0","2000","2000","black","no","xpyriment","legacy","blue","green","red","yellow","legacy","0","uniform","0","0","/","NA","NA","NA","1","NA","NA","1","NA","32","0","0","0","0","NA","32","32","0","0","32","32","32","32","32","0","0","0","0","0","0","32","32","32","32","32","32","32","32","32","32","0","32","NA","NA","1","NA","0","12/24/15 14:39:33","Default description","no","chinese-japanese-korean","no","18","white","開始實驗A","768","legacy","F:\TCU\Lecture\Experimental_Psychology\2015Fall\Compatibility\0_preview\quickrun.csv","xpyriment","Interactive Ising","3.0.4","yes","0","None","NA","space","space","space","space","space","None","space","2000","NA","285","213","365","813","1166","2000","1372","legacy","500","experiment","999","odd","NA","NA","NA","211978","NA","NA","NA","NA","212662","NA","NA","8910","NA","NA","214283","212764","8910","NA","215284","159722","192291","209229","215286","7225","7513","7729","8097","6056","2752","215787","160725","192294","209732","215789","215790","217894","NA","217792","217994","4681","212661","NA","NA","211978","NA","2752","Hommel2002EXP01","0","2000","1","yes","1024"
"n","yes","no","rect","0","0","2000","2000","black","no","xpyriment","legacy","blue","green","yellow","red","legacy","0","uniform","0","0","/","NA","NA","NA","1","NA","NA","1","NA","33","0","0","0","0","NA","33","33","0","0","33","33","33","33","33","0","0","0","0","0","0","33","33","33","33","33","33","33","33","33","33","0","33","NA","NA","1","NA","0","12/24/15 14:39:33","Default description","no","chinese-japanese-korean","no","18","white","開始實驗A","768","legacy","F:\TCU\Lecture\Experimental_Psychology\2015Fall\Compatibility\0_preview\quickrun.csv","xpyriment","Interactive Ising","3.0.4","yes","0","None","NA","space","space","space","space","space","None","space","2000","NA","285","213","365","813","1166","2000","1372","legacy","1000","experiment","999","odd","NA","NA","NA","211978","NA","NA","NA","NA","218750","NA","NA","8910","NA","NA","220382","218867","8910","NA","221383","159722","192291","209229","221385","7225","7513","7729","8097","6056","2752","222386","160725","192294","209732","222388","222389","224493","NA","224391","224593","4681","218750","NA","NA","211978","NA","2752","Hommel2002EXP01","0","4000","2","yes","1024"
"n","yes","no","circle","0","0","2000","2000","black","no","xpyriment","legacy","red","blue","green","yellow","legacy","0","uniform","0","0","z","NA","NA","NA","1","NA","NA","1","NA","34","0","0","0","0","NA","34","34","0","0","34","34","34","34","34","0","0","0","0","0","0","34","34","34","34","34","34","34","34","34","34","0","34","NA","NA","1","NA","0","12/24/15 14:39:33","Default description","no","chinese-japanese-korean","no","18","white","開始實驗A","768","legacy","F:\TCU\Lecture\Experimental_Psychology\2015Fall\Compatibility\0_preview\quickrun.csv","xpyriment","Interactive Ising","3.0.4","yes","0","None","NA","space","space","space","space","space","None","space","2000","NA","285","213","365","813","1166","2000","1372","legacy","500","experiment","999","odd","NA","NA","NA","211978","NA","NA","NA","NA","225343","NA","NA","8910","NA","NA","226965","225463","8910","NA","227965","159722","227967","209229","221385","7225","7513","7729","8097","6056","2752","228467","160725","228470","209732","222388","228470","230574","NA","230472","230674","4681","225343","NA","NA","211978","NA","2752","Hommel2002EXP01","0","6000","3","yes","1024"
"y","yes","no","circle","0","0","2000","2000","black","no","xpyriment","legacy","red","blue","yellow","green","legacy","0","uniform","0","0","z","NA","NA","NA","1","NA","NA","1","NA","35","0","0","0","0","NA","35","35","0","0","35","35","35","35","35","0","0","0","0","0","0","35","35","35","35","35","35","35","35","35","35","0","35","NA","NA","1","NA","0","12/24/15 14:39:33","Default description","no","chinese-japanese-korean","no","18","white","開始實驗A","768","legacy","F:\TCU\Lecture\Experimental_Psychology\2015Fall\Compatibility\0_preview\quickrun.csv","xpyriment","Interactive Ising","3.0.4","yes","0","None","NA","space","space","space","space","space","None","space","2000","NA","285","213","365","813","1166","2000","1372","legacy","1000","experiment","999","odd","NA","NA","NA","211978","NA","NA","NA","NA","231395","NA","NA","8910","NA","NA","232999","231482","8910","NA","233999","234001","227967","209229","221385","7225","7513","7729","8097","6056","2752","235002","235004","228470","209732","222388","235005","237109","NA","237007","237209","4681","231395","NA","NA","211978","NA","2752","Hommel2002EXP01","0","8000","4","yes","1024"
"n","yes","no","circle","0","0","2000","2000","black","no","xpyriment","legacy","yellow","green","blue","red","legacy","0","uniform","0","0","z","NA","NA","NA","1","NA","NA","1","NA","36","0","0","0","0","NA","36","36","0","0","36","36","36","36","36","0","0","0","0","0","0","36","36","36","36","36","36","36","36","36","36","0","36","NA","NA","1","NA","0","12/24/15 14:39:33","Default description","no","chinese-japanese-korean","no","18","white","開始實驗A","768","legacy","F:\TCU\Lecture\Experimental_Psychology\2015Fall\Compatibility\0_preview\quickrun.csv","xpyriment","Interactive Ising","3.0.4","yes","0","None","NA","space","space","space","space","space","None","space","2000","NA","285","213","365","813","1166","2000","1372","legacy","1500","experiment","999","odd","NA","NA","NA","211978","NA","NA","NA","NA","237948","NA","NA","8910","NA","NA","239571","238055","8910","NA","240571","234001","240573","209229","221385","7225","7513","7729","8097","6056","2752","242073","235004","242075","209732","222388","242076","244180","NA","244078","244280","4681","237948","NA","NA","211978","NA","2752","Hommel2002EXP01","0","10000","5","yes","1024"
"y","yes","no","rect","0","0","2000","2000","black","no","xpyriment","legacy","blue","yellow","green","red","legacy","0","uniform","0","0","/","NA","NA","NA","1","NA","NA","1","NA","37","0","0","0","0","NA","37","37","0","0","37","37","37","37","37","0","0","0","0","0","0","37","37","37","37","37","37","37","37","37","37","0","37","NA","NA","1","NA","0","12/24/15 14:39:33","Default description","no","chinese-japanese-korean","no","18","white","開始實驗A","768","legacy","F:\TCU\Lecture\Experimental_Psychology\2015Fall\Compatibility\0_preview\quickrun.csv","xpyriment","Interactive Ising","3.0.4","yes","0","None","NA","space","space","space","space","space","None","space","2000","NA","285","213","365","813","1166","2000","1372","legacy","500","experiment","999","odd","NA","NA","NA","211978","NA","NA","NA","NA","244999","NA","NA","8910","NA","NA","246629","245111","8910","NA","247629","234001","240573","247631","221385","7225","7513","7729","8097","6056","2752","248132","235004","242075","248134","222388","248135","250239","NA","250137","250339","4681","244999","NA","NA","211978","NA","2752","Hommel2002EXP01","0","12000","6","yes","1024"
"n","yes","no","rect","0","0","2000","2000","black","no","xpyriment","legacy","blue","yellow","green","red","legacy","0","uniform","0","0","/","NA","NA","NA","1","NA","NA","1","NA","38","0","0","0","0","NA","38","38","0","0","38","38","38","38","38","0","0","0","0","0","0","38","38","38","38","38","38","38","38","38","38","0","38","NA","NA","1","NA","0","12/24/15 14:39:33","Default description","no","chinese-japanese-korean","no","18","white","開始實驗A","768","legacy","F:\TCU\Lecture\Experimental_Psychology\2015Fall\Compatibility\0_preview\quickrun.csv","xpyriment","Interactive Ising","3.0.4","yes","0","None","NA","space","space","space","space","space","None","space","2000","NA","285","213","365","813","1166","2000","1372","legacy","1500","experiment","999","odd","NA","NA","NA","211978","NA","NA","NA","NA","251070","NA","NA","8910","NA","NA","252702","251184","8910","NA","253702","234001","240573","247631","253704","7225","7513","7729","8097","6056","2752","255205","235004","242075","248134","255207","255208","257312","NA","257210","257412","4681","251070","NA","NA","211978","NA","2752","Hommel2002EXP01","0","14000","7","yes","1024"
"y","yes","no","rect","0","0","2000","2000","black","no","xpyriment","legacy","green","blue","red","yellow","legacy","0","uniform","0","0","/","NA","NA","NA","1","NA","NA","1","NA","39","0","0","0","0","NA","39","39","0","0","39","39","39","39","39","0","0","0","0","0","0","39","39","39","39","39","39","39","39","39","39","0","39","NA","NA","1","NA","0","12/24/15 14:39:33","Default description","no","chinese-japanese-korean","no","18","white","開始實驗A","768","legacy","F:\TCU\Lecture\Experimental_Psychology\2015Fall\Compatibility\0_preview\quickrun.csv","xpyriment","Interactive Ising","3.0.4","yes","0","None","NA","space","space","space","space","space","None","space","2000","NA","285","213","365","813","1166","2000","1372","legacy","0","experiment","999","odd","NA","NA","NA","211978","NA","NA","NA","NA","258136","NA","NA","8910","NA","NA","259753","258235","8910","NA","260754","234001","240573","260757","253704","7225","7513","7729","8097","6056","2752","260757","235004","242075","260759","255207","260760","262864","NA","262762","262964","4681","258136","NA","NA","211978","NA","2752","Hommel2002EXP01","0","16000","8","yes","1024"
"n","yes","no","circle","0","0","2000","2000","black","no","xpyriment","legacy","green","blue","yellow","red","legacy","0","uniform","0","0","z","NA","NA","NA","1","NA","NA","1","NA","40","0","0","0","0","NA","40","40","0","0","40","40","40","40","40","0","0","0","0","0","0","40","40","40","40","40","40","40","40","40","40","0","40","NA","NA","1","NA","0","12/24/15 14:39:33","Default description","no","chinese-japanese-korean","no","18","white","開始實驗A","768","legacy","F:\TCU\Lecture\Experimental_Psychology\2015Fall\Compatibility\0_preview\quickrun.csv","xpyriment","Interactive Ising","3.0.4","yes","0","None","NA","space","space","space","space","space","None","space","2000","NA","285","213","365","813","1166","2000","1372","legacy","0","experiment","999","odd","NA","NA","NA","211978","NA","NA","NA","NA","263877","NA","NA","8910","NA","NA","265502","264000","8910","NA","266502","234001","266504","260757","253704","7225","7513","7729","8097","6056","2752","266505","235004","266507","260759","255207","266508","268612","NA","268510","268712","4681","263877","NA","NA","211978","NA","2752","Hommel2002EXP01","0","18000","9","yes","1024"
"y","yes","no","circle","0","0","2000","2000","black","no","xpyriment","legacy","blue","red","yellow","green","legacy","0","uniform","0","0","z","NA","NA","NA","1","NA","NA","1","NA","41","0","0","0","0","NA","41","41","0","0","41","41","41","41","41","0","0","0","0","0","0","41","41","41","41","41","41","41","41","41","41","0","41","NA","NA","1","NA","0","12/24/15 14:39:33","Default description","no","chinese-japanese-korean","no","18","white","開始實驗A","768","legacy","F:\TCU\Lecture\Experimental_Psychology\2015Fall\Compatibility\0_preview\quickrun.csv","xpyriment","Interactive Ising","3.0.4","yes","0","None","NA","space","space","space","space","space","None","space","2001","NA","285","213","365","813","1166","2001","1372","legacy","0","experiment","999","odd","NA","NA","NA","211978","NA","NA","NA","NA","269460","NA","NA","8910","NA","NA","271047","269530","8910","NA","272047","272049","266504","260757","253704","7225","7513","7729","8097","6056","2752","272050","272052","266507","260759","255207","272052","274157","NA","274055","274257","4681","269459","NA","NA","211978","NA","2752","Hommel2002EXP01","0","20001","10","yes","1024"
"n","yes","no","circle","0","0","2000","2000","black","no","xpyriment","legacy","yellow","green","red","blue","legacy","0","uniform","0","0","z","NA","NA","NA","1","NA","NA","1","NA","42","0","0","0","0","NA","42","42","0","0","42","42","42","42","42","0","0","0","0","0","0","42","42","42","42","42","42","42","42","42","42","0","42","NA","NA","1","NA","0","12/24/15 14:39:33","Default description","no","chinese-japanese-korean","no","18","white","開始實驗A","768","legacy","F:\TCU\Lecture\Experimental_Psychology\2015Fall\Compatibility\0_preview\quickrun.csv","xpyriment","Interactive Ising","3.0.4","yes","0","None","NA","space","space","space","space","space","None","space","2000","NA","285","213","365","813","1166","2000","1372","legacy","500","experiment","999","odd","NA","NA","NA","211978","NA","NA","NA","NA","274966","NA","NA","8910","NA","NA","276611","275087","8910","NA","277611","272049","277613","260757","253704","7225","7513","7729","8097","6056","2752","278114","272052","278119","260759","255207","278119","280223","NA","280121","280323","4681","274966","NA","NA","211978","NA","2752","Hommel2002EXP01","0","22001","11","yes","1024"
"y","yes","no","circle","0","0","2000","2000","black","no","xpyriment","legacy","green","yellow","red","blue","legacy","0","uniform","0","0","z","NA","NA","NA","1","NA","NA","1","NA","43","0","0","0","0","NA","43","43","0","0","43","43","43","43","43","0","0","0","0","0","0","43","43","43","43","43","43","43","43","43","43","0","43","NA","NA","1","NA","0","12/24/15 14:39:33","Default description","no","chinese-japanese-korean","no","18","white","開始實驗A","768","legacy","F:\TCU\Lecture\Experimental_Psychology\2015Fall\Compatibility\0_preview\quickrun.csv","xpyriment","Interactive Ising","3.0.4","yes","0","None","NA","space","space","space","space","space","None","space","2000","NA","285","213","365","813","1166","2000","1372","legacy","1500","experiment","999","odd","NA","NA","NA","211978","NA","NA","NA","NA","281105","NA","NA","8910","NA","NA","282718","281203","8910","NA","283719","283721","277613","260757","253704","7225","7513","7729","8097","6056","2752","285221","285224","278119","260759","255207","285224","287328","NA","287226","287428","4681","281105","NA","NA","211978","NA","2752","Hommel2002EXP01","0","24001","12","yes","1024"
"y","yes","no","circle","0","0","2000","2000","black","no","xpyriment","legacy","yellow","blue","red","green","legacy","0","uniform","0","0","z","NA","NA","NA","1","NA","NA","1","NA","44","0","0","0","0","NA","44","44","0","0","44","44","44","44","44","0","0","0","0","0","0","44","44","44","44","44","44","44","44","44","44","0","44","NA","NA","1","NA","0","12/24/15 14:39:33","Default description","no","chinese-japanese-korean","no","18","white","開始實驗A","768","legacy","F:\TCU\Lecture\Experimental_Psychology\2015Fall\Compatibility\0_preview\quickrun.csv","xpyriment","Interactive Ising","3.0.4","yes","0","None","NA","space","space","space","space","space","None","space","2000","NA","285","213","365","813","1166","2000","1372","legacy","500","experiment","999","odd","NA","NA","NA","211978","NA","NA","NA","NA","288142","NA","NA","8910","NA","NA","289760","288245","8910","NA","290761","290763","277613","260757","253704","7225","7513","7729","8097","6056","2752","291263","291265","278119","260759","255207","291266","293370","NA","293268","293470","4681","288142","NA","NA","211978","NA","2752","Hommel2002EXP01","0","26001","13","yes","1024"
"n","yes","no","rect","0","0","2000","2000","black","no","xpyriment","legacy","blue","red","green","yellow","legacy","0","uniform","0","0","/","NA","NA","NA","1","NA","NA","1","NA","45","0","0","0","0","NA","45","45","0","0","45","45","45","45","45","0","0","0","0","0","0","45","45","45","45","45","45","45","45","45","45","0","45","NA","NA","1","NA","0","12/24/15 14:39:33","Default description","no","chinese-japanese-korean","no","18","white","開始實驗A","768","legacy","F:\TCU\Lecture\Experimental_Psychology\2015Fall\Compatibility\0_preview\quickrun.csv","xpyriment","Interactive Ising","3.0.4","yes","0","None","NA","space","space","space","space","space","None","space","2000","NA","285","213","365","813","1166","2000","1372","legacy","1500","experiment","999","odd","NA","NA","NA","211978","NA","NA","NA","NA","294189","NA","NA","8910","NA","NA","295803","294288","8910","NA","296804","290763","277613","260757","296806","7225","7513","7729","8097","6056","2752","298307","291265","278119","260759","298309","298310","300414","NA","300312","300514","4681","294189","NA","NA","211978","NA","2752","Hommel2002EXP01","0","28001","14","yes","1024"
"n","yes","no","rect","0","0","2000","2000","black","no","xpyriment","legacy","green","blue","red","yellow","legacy","0","uniform","0","0","/","NA","NA","NA","1","NA","NA","1","NA","46","0","0","0","0","NA","46","46","0","0","46","46","46","46","46","0","0","0","0","0","0","46","46","46","46","46","46","46","46","46","46","0","46","NA","NA","1","NA","0","12/24/15 14:39:33","Default description","no","chinese-japanese-korean","no","18","white","開始實驗A","768","legacy","F:\TCU\Lecture\Experimental_Psychology\2015Fall\Compatibility\0_preview\quickrun.csv","xpyriment","Interactive Ising","3.0.4","yes","0","None","NA","space","space","space","space","space","None","space","2001","NA","285","213","365","813","1166","2001","1372","legacy","0","experiment","999","odd","NA","NA","NA","211978","NA","NA","NA","NA","301273","NA","NA","8910","NA","NA","302907","301405","8910","NA","303907","290763","277613","260757","303909","7225","7513","7729","8097","6056","2752","303910","291265","278119","260759","303912","303912","306017","NA","305915","306117","4681","301273","NA","NA","211978","NA","2752","Hommel2002EXP01","0","30002","15","yes","1024"
"y","yes","no","rect","0","0","2000","2000","black","no","xpyriment","legacy","yellow","green","blue","red","legacy","0","uniform","0","0","/","NA","NA","NA","1","NA","NA","1","NA","47","0","0","0","0","NA","47","47","0","0","47","47","47","47","47","0","0","0","0","0","0","47","47","47","47","47","47","47","47","47","47","0","47","NA","NA","1","NA","0","12/24/15 14:39:33","Default description","no","chinese-japanese-korean","no","18","white","開始實驗A","768","legacy","F:\TCU\Lecture\Experimental_Psychology\2015Fall\Compatibility\0_preview\quickrun.csv","xpyriment","Interactive Ising","3.0.4","yes","0","None","NA","space","space","space","space","space","None","space","2000","NA","285","213","365","813","1166","2000","1372","legacy","1500","experiment","999","odd","NA","NA","NA","211978","NA","NA","NA","NA","306861","NA","NA","8910","NA","NA","308438","306919","8910","NA","309438","290763","277613","309442","303909","7225","7513","7729","8097","6056","2752","310942","291265","278119","310944","303912","310945","313049","NA","312947","313149","4681","306861","NA","NA","211978","NA","2752","Hommel2002EXP01","0","32002","16","yes","1024"
"y","yes","no","rect","0","0","2000","2000","black","no","xpyriment","legacy","green","blue","red","yellow","legacy","0","uniform","0","0","/","NA","NA","NA","1","NA","NA","1","NA","48","0","0","0","0","NA","48","48","0","0","48","48","48","48","48","0","0","0","0","0","0","48","48","48","48","48","48","48","48","48","48","0","48","NA","NA","1","NA","0","12/24/15 14:39:33","Default description","no","chinese-japanese-korean","no","18","white","開始實驗A","768","legacy","F:\TCU\Lecture\Experimental_Psychology\2015Fall\Compatibility\0_preview\quickrun.csv","xpyriment","Interactive Ising","3.0.4","yes","0","None","NA","space","space","space","space","space","None","space","2000","NA","285","213","365","813","1166","2000","1372","legacy","1000","experiment","999","odd","NA","NA","NA","211978","NA","NA","NA","NA","313951","NA","NA","8910","NA","NA","315575","314060","8910","NA","316576","290763","277613","316578","303909","7225","7513","7729","8097","6056","2752","317579","291265","278119","317581","303912","317582","319686","NA","319584","319786","4681","313951","NA","NA","211978","NA","2752","Hommel2002EXP01","0","34002","17","yes","1024"
"y","yes","no","rect","0","0","2000","2000","black","no","xpyriment","legacy","blue","yellow","green","red","legacy","0","uniform","0","0","/","NA","NA","NA","1","NA","NA","1","NA","49","0","0","0","0","NA","49","49","0","0","49","49","49","49","49","0","0","0","0","0","0","49","49","49","49","49","49","49","49","49","49","0","49","NA","NA","1","NA","0","12/24/15 14:39:33","Default description","no","chinese-japanese-korean","no","18","white","開始實驗A","768","legacy","F:\TCU\Lecture\Experimental_Psychology\2015Fall\Compatibility\0_preview\quickrun.csv","xpyriment","Interactive Ising","3.0.4","yes","0","None","NA","space","space","space","space","space","None","space","2000","NA","285","213","365","813","1166","2000","1372","legacy","500","experiment","999","odd","NA","NA","NA","211978","NA","NA","NA","NA","320486","NA","NA","8910","NA","NA","322104","320589","8910","NA","323104","290763","277613","323106","303909","7225","7513","7729","8097","6056","2752","323607","291265","278119","323609","303912","323610","325714","NA","325612","325814","4681","320486","NA","NA","211978","NA","2752","Hommel2002EXP01","0","36002","18","yes","1024"
"y","yes","no","circle","0","0","2000","2000","black","no","xpyriment","legacy","blue","red","green","yellow","legacy","0","uniform","0","0","z","NA","NA","NA","1","NA","NA","1","NA","50","0","0","0","0","NA","50","50","0","0","50","50","50","50","50","0","0","0","0","0","0","50","50","50","50","50","50","50","50","50","50","0","50","NA","NA","1","NA","0","12/24/15 14:39:33","Default description","no","chinese-japanese-korean","no","18","white","開始實驗A","768","legacy","F:\TCU\Lecture\Experimental_Psychology\2015Fall\Compatibility\0_preview\quickrun.csv","xpyriment","Interactive Ising","3.0.4","yes","0","None","NA","space","space","space","space","space","None","space","2000","NA","285","213","365","813","1166","2000","1372","legacy","500","experiment","999","odd","NA","NA","NA","211978","NA","NA","NA","NA","326536","NA","NA","8910","NA","NA","328150","326635","8910","NA","329150","329152","277613","323106","303909","7225","7513","7729","8097","6056","2752","329653","329655","278119","323609","303912","329656","331760","NA","331658","331860","4681","326536","NA","NA","211978","NA","2752","Hommel2002EXP01","0","38002","19","yes","1024"
"n","yes","no","circle","0","0","2000","2000","black","no","xpyriment","legacy","blue","green","yellow","red","legacy","0","uniform","0","0","z","NA","NA","NA","1","NA","NA","1","NA","51","0","0","0","0","NA","51","51","0","0","51","51","51","51","51","0","0","0","0","0","0","51","51","51","51","51","51","51","51","51","51","0","51","NA","NA","1","NA","0","12/24/15 14:39:33","Default description","no","chinese-japanese-korean","no","18","white","開始實驗A","768","legacy","F:\TCU\Lecture\Experimental_Psychology\2015Fall\Compatibility\0_preview\quickrun.csv","xpyriment","Interactive Ising","3.0.4","yes","0","None","NA","space","space","space","space","space","None","space","2001","NA","285","213","365","813","1166","2001","1372","legacy","0","experiment","999","odd","NA","NA","NA","211978","NA","NA","NA","NA","332584","NA","NA","8910","NA","NA","334206","332688","8910","NA","335206","329152","335208","323106","303909","7225","7513","7729","8097","6056","2752","335209","329655","335211","323609","303912","335211","337316","NA","337214","337416","4681","332584","NA","NA","211978","NA","2752","Hommel2002EXP01","0","40003","20","yes","1024"
"y","yes","no","rect","0","0","2000","2000","black","no","xpyriment","legacy","green","yellow","blue","red","legacy","0","uniform","0","0","/","NA","NA","NA","1","NA","NA","1","NA","52","0","0","0","0","NA","52","52","0","0","52","52","52","52","52","0","0","0","0","0","0","52","52","52","52","52","52","52","52","52","52","0","52","NA","NA","1","NA","0","12/24/15 14:39:33","Default description","no","chinese-japanese-korean","no","18","white","開始實驗A","768","legacy","F:\TCU\Lecture\Experimental_Psychology\2015Fall\Compatibility\0_preview\quickrun.csv","xpyriment","Interactive Ising","3.0.4","yes","0","None","NA","space","space","space","space","space","None","space","2000","NA","285","213","365","813","1166","2000","1372","legacy","0","experiment","999","odd","NA","NA","NA","211978","NA","NA","NA","NA","338149","NA","NA","8910","NA","NA","339778","338262","8910","NA","340778","329152","335208","340781","303909","7225","7513","7729","8097","6056","2752","340781","329655","335211","340783","303912","340784","342888","NA","342786","342988","4681","338149","NA","NA","211978","NA","2752","Hommel2002EXP01","0","42003","21","yes","1024"
"y","yes","no","circle","0","0","2000","2000","black","no","xpyriment","legacy","yellow","green","red","blue","legacy","0","uniform","0","0","z","NA","NA","NA","1","NA","NA","1","NA","53","0","0","0","0","NA","53","53","0","0","53","53","53","53","53","0","0","0","0","0","0","53","53","53","53","53","53","53","53","53","53","0","53","NA","NA","1","NA","0","12/24/15 14:39:33","Default description","no","chinese-japanese-korean","no","18","white","開始實驗A","768","legacy","F:\TCU\Lecture\Experimental_Psychology\2015Fall\Compatibility\0_preview\quickrun.csv","xpyriment","Interactive Ising","3.0.4","yes","0","None","NA","space","space","space","space","space","None","space","2001","NA","285","213","365","813","1166","2001","1372","legacy","0","experiment","999","odd","NA","NA","NA","211978","NA","NA","NA","NA","343919","NA","NA","8910","NA","NA","345572","344069","8910","NA","346572","346574","335208","340781","303909","7225","7513","7729","8097","6056","2752","346575","346577","335211","340783","303912","346577","348682","NA","348580","348782","4681","343919","NA","NA","211978","NA","2752","Hommel2002EXP01","0","44004","22","yes","1024"
"n","yes","no","circle","0","0","2000","2000","black","no","xpyriment","legacy","blue","green","yellow","red","legacy","0","uniform","0","0","z","NA","NA","NA","1","NA","NA","1","NA","54","0","0","0","0","NA","54","54","0","0","54","54","54","54","54","0","0","0","0","0","0","54","54","54","54","54","54","54","54","54","54","0","54","NA","NA","1","NA","0","12/24/15 14:39:33","Default description","no","chinese-japanese-korean","no","18","white","開始實驗A","768","legacy","F:\TCU\Lecture\Experimental_Psychology\2015Fall\Compatibility\0_preview\quickrun.csv","xpyriment","Interactive Ising","3.0.4","yes","0","None","NA","space","space","space","space","space","None","space","2000","NA","285","213","365","813","1166","2000","1372","legacy","1500","experiment","999","odd","NA","NA","NA","211978","NA","NA","NA","NA","349567","NA","NA","8910","NA","NA","351149","349634","8910","NA","352149","346574","352151","340781","303909","7225","7513","7729","8097","6056","2752","353651","346577","353654","340783","303912","353654","355758","NA","355656","355858","4681","349567","NA","NA","211978","NA","2752","Hommel2002EXP01","0","46004","23","yes","1024"
"y","yes","no","rect","0","0","2000","2000","black","no","xpyriment","legacy","red","yellow","green","blue","legacy","0","uniform","0","0","/","NA","NA","NA","1","NA","NA","1","NA","55","0","0","0","0","NA","55","55","0","0","55","55","55","55","55","0","0","0","0","0","0","55","55","55","55","55","55","55","55","55","55","0","55","NA","NA","1","NA","0","12/24/15 14:39:33","Default description","no","chinese-japanese-korean","no","18","white","開始實驗A","768","legacy","F:\TCU\Lecture\Experimental_Psychology\2015Fall\Compatibility\0_preview\quickrun.csv","xpyriment","Interactive Ising","3.0.4","yes","0","None","NA","space","space","space","space","space","None","space","2000","NA","285","213","365","813","1166","2000","1372","legacy","1500","experiment","999","odd","NA","NA","NA","211978","NA","NA","NA","NA","356570","NA","NA","8910","NA","NA","358183","356664","8910","NA","359183","346574","352151","359185","303909","7225","7513","7729","8097","6056","2752","360686","346577","353654","360688","303912","360689","362793","NA","362691","362893","4681","356570","NA","NA","211978","NA","2752","Hommel2002EXP01","0","48004","24","yes","1024"
"y","yes","no","circle","0","0","2000","2000","black","no","xpyriment","legacy","yellow","red","blue","green","legacy","0","uniform","0","0","z","NA","NA","NA","1","NA","NA","1","NA","56","0","0","0","0","NA","56","56","0","0","56","56","56","56","56","0","0","0","0","0","0","56","56","56","56","56","56","56","56","56","56","0","56","NA","NA","1","NA","0","12/24/15 14:39:33","Default description","no","chinese-japanese-korean","no","18","white","開始實驗A","768","legacy","F:\TCU\Lecture\Experimental_Psychology\2015Fall\Compatibility\0_preview\quickrun.csv","xpyriment","Interactive Ising","3.0.4","yes","0","None","NA","space","space","space","space","space","None","space","2000","NA","285","213","365","813","1166","2000","1372","legacy","1500","experiment","999","odd","NA","NA","NA","211978","NA","NA","NA","NA","363618","NA","NA","8910","NA","NA","365231","363712","8910","NA","366231","366233","352151","359185","303909","7225","7513","7729","8097","6056","2752","367733","367735","353654","360688","303912","367736","369840","NA","369738","369940","4681","363618","NA","NA","211978","NA","2752","Hommel2002EXP01","0","50004","25","yes","1024"
"y","yes","no","circle","0","0","2000","2000","black","no","xpyriment","legacy","green","yellow","blue","red","legacy","0","uniform","0","0","z","NA","NA","NA","1","NA","NA","1","NA","57","0","0","0","0","NA","57","57","0","0","57","57","57","57","57","0","0","0","0","0","0","57","57","57","57","57","57","57","57","57","57","0","57","NA","NA","1","NA","0","12/24/15 14:39:33","Default description","no","chinese-japanese-korean","no","18","white","開始實驗A","768","legacy","F:\TCU\Lecture\Experimental_Psychology\2015Fall\Compatibility\0_preview\quickrun.csv","xpyriment","Interactive Ising","3.0.4","yes","0","None","NA","space","space","space","space","space","None","space","2000","NA","285","213","365","813","1166","2000","1372","legacy","1000","experiment","999","odd","NA","NA","NA","211978","NA","NA","NA","NA","370678","NA","NA","8910","NA","NA","372300","370784","8910","NA","373300","373302","352151","359185","303909","7225","7513","7729","8097","6056","2752","374302","374304","353654","360688","303912","374305","376409","NA","376307","376509","4681","370678","NA","NA","211978","NA","2752","Hommel2002EXP01","0","52004","26","yes","1024"
"n","yes","no","circle","0","0","2000","2000","black","no","xpyriment","legacy","red","green","yellow","blue","legacy","0","uniform","0","0","z","NA","NA","NA","1","NA","NA","1","NA","58","0","0","0","0","NA","58","58","0","0","58","58","58","58","58","0","0","0","0","0","0","58","58","58","58","58","58","58","58","58","58","0","58","NA","NA","1","NA","0","12/24/15 14:39:33","Default description","no","chinese-japanese-korean","no","18","white","開始實驗A","768","legacy","F:\TCU\Lecture\Experimental_Psychology\2015Fall\Compatibility\0_preview\quickrun.csv","xpyriment","Interactive Ising","3.0.4","yes","0","None","NA","space","space","space","space","space","None","space","2000","NA","285","213","365","813","1166","2000","1372","legacy","1000","experiment","999","odd","NA","NA","NA","211978","NA","NA","NA","NA","377246","NA","NA","8910","NA","NA","378873","377357","8910","NA","379873","373302","379875","359185","303909","7225","7513","7729","8097","6056","2752","380876","374304","380878","360688","303912","380879","382983","NA","382881","383083","4681","377246","NA","NA","211978","NA","2752","Hommel2002EXP01","0","54004","27","yes","1024"
"n","yes","no","rect","0","0","2000","2000","black","no","xpyriment","legacy","green","red","blue","yellow","legacy","0","uniform","0","0","/","NA","NA","NA","1","NA","NA","1","NA","59","0","0","0","0","NA","59","59","0","0","59","59","59","59","59","0","0","0","0","0","0","59","59","59","59","59","59","59","59","59","59","0","59","NA","NA","1","NA","0","12/24/15 14:39:33","Default description","no","chinese-japanese-korean","no","18","white","開始實驗A","768","legacy","F:\TCU\Lecture\Experimental_Psychology\2015Fall\Compatibility\0_preview\quickrun.csv","xpyriment","Interactive Ising","3.0.4","yes","0","None","NA","space","space","space","space","space","None","space","2000","NA","285","213","365","813","1166","2000","1372","legacy","1000","experiment","999","odd","NA","NA","NA","211978","NA","NA","NA","NA","383861","NA","NA","8910","NA","NA","385512","384010","8910","NA","386512","373302","379875","359185","386514","7225","7513","7729","8097","6056","2752","387515","374304","380878","360688","387517","387518","389622","NA","389520","389722","4681","383861","NA","NA","211978","NA","2752","Hommel2002EXP01","0","56004","28","yes","1024"
"n","yes","no","circle","0","0","2000","2000","black","no","xpyriment","legacy","red","yellow","blue","green","legacy","0","uniform","0","0","z","NA","NA","NA","1","NA","NA","1","NA","60","0","0","0","0","NA","60","60","0","0","60","60","60","60","60","0","0","0","0","0","0","60","60","60","60","60","60","60","60","60","60","0","60","NA","NA","1","NA","0","12/24/15 14:39:33","Default description","no","chinese-japanese-korean","no","18","white","開始實驗A","768","legacy","F:\TCU\Lecture\Experimental_Psychology\2015Fall\Compatibility\0_preview\quickrun.csv","xpyriment","Interactive Ising","3.0.4","yes","0","None","NA","space","space","space","space","space","None","space","2000","NA","285","213","365","813","1166","2000","1372","legacy","1000","experiment","999","odd","NA","NA","NA","211978","NA","NA","NA","NA","390482","NA","NA","8910","NA","NA","392066","390551","8910","NA","393067","373302","393069","359185","386514","7225","7513","7729","8097","6056","2752","394069","374304","394071","360688","387517","394072","396176","NA","396074","396276","4681","390482","NA","NA","211978","NA","2752","Hommel2002EXP01","0","58004","29","yes","1024"
"n","yes","no","rect","0","0","2000","2000","black","no","xpyriment","legacy","green","yellow","red","blue","legacy","0","uniform","0","0","/","NA","NA","NA","1","NA","NA","1","NA","61","0","0","0","0","NA","61","61","0","0","61","61","61","61","61","0","0","0","0","0","0","61","61","61","61","61","61","61","61","61","61","0","61","NA","NA","1","NA","0","12/24/15 14:39:33","Default description","no","chinese-japanese-korean","no","18","white","開始實驗A","768","legacy","F:\TCU\Lecture\Experimental_Psychology\2015Fall\Compatibility\0_preview\quickrun.csv","xpyriment","Interactive Ising","3.0.4","yes","0","None","NA","space","space","space","space","space","None","space","2000","NA","285","213","365","813","1166","2000","1372","legacy","500","experiment","999","odd","NA","NA","NA","211978","NA","NA","NA","NA","397006","NA","NA","8910","NA","NA","398614","397099","8910","NA","399615","373302","393069","359185","399617","7225","7513","7729","8097","6056","2752","400117","374304","394071","360688","400119","400120","402224","NA","402122","402324","4681","397006","NA","NA","211978","NA","2752","Hommel2002EXP01","0","60004","30","yes","1024"
"n","yes","no","rect","0","0","2000","2000","black","no","xpyriment","legacy","yellow","green","red","blue","legacy","0","uniform","0","0","/","NA","NA","NA","1","NA","NA","1","NA","62","0","0","0","0","NA","62","62","0","0","62","62","62","62","62","0","0","0","0","0","0","62","62","62","62","62","62","62","62","62","62","0","62","NA","NA","1","NA","0","12/24/15 14:39:33","Default description","no","chinese-japanese-korean","no","18","white","開始實驗A","768","legacy","F:\TCU\Lecture\Experimental_Psychology\2015Fall\Compatibility\0_preview\quickrun.csv","xpyriment","Interactive Ising","3.0.4","yes","0","None","NA","space","space","space","space","space","None","space","2000","NA","285","213","365","813","1166","2000","1372","legacy","0","experiment","999","odd","NA","NA","NA","211978","NA","NA","NA","NA","403043","NA","NA","8910","NA","NA","404659","403144","8910","NA","405660","373302","393069","359185","405662","7225","7513","7729","8097","6056","2752","405663","374304","394071","360688","405665","405665","407769","NA","407667","407869","4681","403043","NA","NA","211978","NA","2752","Hommel2002EXP01","0","62004","31","yes","1024"
"y","yes","no","rect","0","0","2000","2000","black","no","xpyriment","legacy","red","yellow","blue","green","legacy","0","uniform","0","0","/","NA","NA","NA","1","NA","NA","1","NA","63","0","0","0","0","NA","63","63","0","0","63","63","63","63","63","0","0","0","0","0","0","63","63","63","63","63","63","63","63","63","63","0","63","NA","NA","1","NA","0","12/24/15 14:39:33","Default description","no","chinese-japanese-korean","no","18","white","開始實驗A","768","legacy","F:\TCU\Lecture\Experimental_Psychology\2015Fall\Compatibility\0_preview\quickrun.csv","xpyriment","Interactive Ising","3.0.4","yes","0","None","NA","space","space","space","space","space","None","space","2000","NA","285","213","365","813","1166","2000","1372","legacy","1000","experiment","999","odd","NA","NA","NA","211978","NA","NA","NA","NA","408595","NA","NA","8910","NA","NA","410263","408711","8910","NA","411263","373302","393069","411266","405662","7225","7513","7729","8097","6056","2752","412266","374304","394071","412310","405665","412310","414414","NA","414312","414514","4681","408593","NA","NA","211978","NA","2752","Hommel2002EXP01","0","64004","32","yes","1024"
"y","yes","no","rect","0","0","2000","2000","black","no","xpyriment","legacy","blue","red","yellow","green","legacy","0","uniform","0","0","/","0","NA","NA","1","0","NA","1","NA","64","0","0","0","0","0","64","64","0","0","64","64","64","64","64","0","0","0","0","0","0","64","64","64","64","64","64","64","64","64","64","0","64","0","NA","1","NA","0","12/24/15 14:39:33","Default description","no","chinese-japanese-korean","no","18","white","開始實驗A","768","legacy","F:\TCU\Lecture\Experimental_Psychology\2015Fall\Compatibility\0_preview\quickrun.csv","xpyriment","Interactive Ising","3.0.4","no","0","None","space","space","space","space","space","space","None","space","2000","4286","285","213","365","813","1166","2000","1372","legacy","1000","experiment","999","odd","418998","NA","NA","211978","NA","NA","NA","NA","419660","418995","NA","8910","NA","414709","421292","419776","8910","NA","422293","373302","393069","422295","405662","7225","7513","7729","8097","6056","2752","423296","374304","394071","423298","405665","423299","425403","NA","425301","425503","4681","419660","418998","NA","211978","NA","2752","Hommel2002EXP01","0","2000","1","yes","1024"
"y","yes","no","rect","0","0","2000","2000","black","no","xpyriment","legacy","red","blue","green","yellow","legacy","0","uniform","0","0","/","0","NA","NA","1","0","NA","1","NA","65","0","0","0","0","0","65","65","0","0","65","65","65","65","65","0","0","0","0","0","0","65","65","65","65","65","65","65","65","65","65","0","65","0","NA","1","NA","0","12/24/15 14:39:33","Default description","no","chinese-japanese-korean","no","18","white","開始實驗A","768","legacy","F:\TCU\Lecture\Experimental_Psychology\2015Fall\Compatibility\0_preview\quickrun.csv","xpyriment","Interactive Ising","3.0.4","no","0","None","space","space","space","space","space","space","None","space","2001","4286","285","213","365","813","1166","2001","1372","legacy","0","experiment","999","odd","418998","NA","NA","211978","NA","NA","NA","NA","426292","418995","NA","8910","NA","414709","427972","426470","8910","NA","428972","373302","393069","428974","405662","7225","7513","7729","8097","6056","2752","428975","374304","394071","428977","405665","428977","431082","NA","430980","431182","4681","426292","418998","NA","211978","NA","2752","Hommel2002EXP01","0","4001","2","yes","1024"
"y","yes","no","circle","0","0","2000","2000","black","no","xpyriment","legacy","blue","red","yellow","green","legacy","0","uniform","0","0","z","0","NA","NA","1","0","NA","1","NA","66","0","0","0","0","0","66","66","0","0","66","66","66","66","66","0","0","0","0","0","0","66","66","66","66","66","66","66","66","66","66","0","66","0","NA","1","NA","0","12/24/15 14:39:33","Default description","no","chinese-japanese-korean","no","18","white","開始實驗A","768","legacy","F:\TCU\Lecture\Experimental_Psychology\2015Fall\Compatibility\0_preview\quickrun.csv","xpyriment","Interactive Ising","3.0.4","no","0","None","space","space","space","space","space","space","None","space","2000","4286","285","213","365","813","1166","2000","1372","legacy","1500","experiment","999","odd","418998","NA","NA","211978","NA","NA","NA","NA","431943","418995","NA","8910","NA","414709","433537","432019","8910","NA","434537","434539","393069","428974","405662","7225","7513","7729","8097","6056","2752","436040","436042","394071","428977","405665","436043","438147","NA","438045","438247","4681","431943","418998","NA","211978","NA","2752","Hommel2002EXP01","0","6001","3","yes","1024"
"n","yes","no","circle","0","0","2000","2000","black","no","xpyriment","legacy","green","yellow","blue","red","legacy","0","uniform","0","0","z","0","NA","NA","1","0","NA","1","NA","67","0","0","0","0","0","67","67","0","0","67","67","67","67","67","0","0","0","0","0","0","67","67","67","67","67","67","67","67","67","67","0","67","0","NA","1","NA","0","12/24/15 14:39:33","Default description","no","chinese-japanese-korean","no","18","white","開始實驗A","768","legacy","F:\TCU\Lecture\Experimental_Psychology\2015Fall\Compatibility\0_preview\quickrun.csv","xpyriment","Interactive Ising","3.0.4","no","0","None","space","space","space","space","space","space","None","space","2000","4286","285","213","365","813","1166","2000","1372","legacy","1000","experiment","999","odd","418998","NA","NA","211978","NA","NA","NA","NA","438959","418995","NA","8910","NA","414709","440574","439058","8910","NA","441574","434539","441576","428974","405662","7225","7513","7729","8097","6056","2752","442576","436042","442578","428977","405665","442579","444683","NA","444581","444783","4681","438959","418998","NA","211978","NA","2752","Hommel2002EXP01","0","8001","4","yes","1024"
"n","yes","no","circle","0","0","2000","2000","black","no","xpyriment","legacy","green","yellow","red","blue","legacy","0","uniform","0","0","z","0","NA","NA","1","0","NA","1","NA","68","0","0","0","0","0","68","68","0","0","68","68","68","68","68","0","0","0","0","0","0","68","68","68","68","68","68","68","68","68","68","0","68","0","NA","1","NA","0","12/24/15 14:39:33","Default description","no","chinese-japanese-korean","no","18","white","開始實驗A","768","legacy","F:\TCU\Lecture\Experimental_Psychology\2015Fall\Compatibility\0_preview\quickrun.csv","xpyriment","Interactive Ising","3.0.4","no","0","None","space","space","space","space","space","space","None","space","2000","4286","285","213","365","813","1166","2000","1372","legacy","1000","experiment","999","odd","418998","NA","NA","211978","NA","NA","NA","NA","445514","418995","NA","8910","NA","414709","447141","445623","8910","NA","448141","434539","448143","428974","405662","7225","7513","7729","8097","6056","2752","449143","436042","449145","428977","405665","449146","451250","NA","451148","451350","4681","445514","418998","NA","211978","NA","2752","Hommel2002EXP01","0","10001","5","yes","1024"
"y","yes","no","circle","0","0","2000","2000","black","no","xpyriment","legacy","yellow","blue","green","red","legacy","0","uniform","0","0","z","0","NA","NA","1","0","NA","1","NA","69","0","0","0","0","0","69","69","0","0","69","69","69","69","69","0","0","0","0","0","0","69","69","69","69","69","69","69","69","69","69","0","69","0","NA","1","NA","0","12/24/15 14:39:33","Default description","no","chinese-japanese-korean","no","18","white","開始實驗A","768","legacy","F:\TCU\Lecture\Experimental_Psychology\2015Fall\Compatibility\0_preview\quickrun.csv","xpyriment","Interactive Ising","3.0.4","no","0","None","space","space","space","space","space","space","None","space","2000","4286","285","213","365","813","1166","2000","1372","legacy","1000","experiment","999","odd","418998","NA","NA","211978","NA","NA","NA","NA","452067","418995","NA","8910","NA","414709","453700","452181","8910","NA","454700","454703","448143","428974","405662","7225","7513","7729","8097","6056","2752","455703","455706","449145","428977","405665","455706","457810","NA","457708","457910","4681","452066","418998","NA","211978","NA","2752","Hommel2002EXP01","0","12001","6","yes","1024"
"y","yes","no","circle","0","0","2000","2000","black","no","xpyriment","legacy","green","red","blue","yellow","legacy","0","uniform","0","0","z","0","NA","NA","1","0","NA","1","NA","70","0","0","0","0","0","70","70","0","0","70","70","70","70","70","0","0","0","0","0","0","70","70","70","70","70","70","70","70","70","70","0","70","0","NA","1","NA","0","12/24/15 14:39:33","Default description","no","chinese-japanese-korean","no","18","white","開始實驗A","768","legacy","F:\TCU\Lecture\Experimental_Psychology\2015Fall\Compatibility\0_preview\quickrun.csv","xpyriment","Interactive Ising","3.0.4","no","0","None","space","space","space","space","space","space","None","space","2000","4286","285","213","365","813","1166","2000","1372","legacy","1500","experiment","999","odd","418998","NA","NA","211978","NA","NA","NA","NA","458639","418995","NA","8910","NA","414709","460286","458768","8910","NA","461287","461289","448143","428974","405662","7225","7513","7729","8097","6056","2752","462790","462793","449145","428977","405665","462793","464897","NA","464795","464997","4681","458638","418998","NA","211978","NA","2752","Hommel2002EXP01","0","14001","7","yes","1024"
"y","yes","no","circle","0","0","2000","2000","black","no","xpyriment","legacy","blue","yellow","green","red","legacy","0","uniform","0","0","z","0","NA","NA","1","0","NA","1","NA","71","0","0","0","0","0","71","71","0","0","71","71","71","71","71","0","0","0","0","0","0","71","71","71","71","71","71","71","71","71","71","0","71","0","NA","1","NA","0","12/24/15 14:39:33","Default description","no","chinese-japanese-korean","no","18","white","開始實驗A","768","legacy","F:\TCU\Lecture\Experimental_Psychology\2015Fall\Compatibility\0_preview\quickrun.csv","xpyriment","Interactive Ising","3.0.4","no","0","None","space","space","space","space","space","space","None","space","2001","4286","285","213","365","813","1166","2001","1372","legacy","0","experiment","999","odd","418998","NA","NA","211978","NA","NA","NA","NA","465807","418995","NA","8910","NA","414709","467488","465973","8910","NA","468488","468490","448143","428974","405662","7225","7513","7729","8097","6056","2752","468491","468493","449145","428977","405665","468493","470598","NA","470496","470698","4681","465807","418998","NA","211978","NA","2752","Hommel2002EXP01","0","16002","8","yes","1024"
"y","yes","no","rect","0","0","2000","2000","black","no","xpyriment","legacy","red","yellow","blue","green","legacy","0","uniform","0","0","/","0","NA","NA","1","0","NA","1","NA","72","0","0","0","0","0","72","72","0","0","72","72","72","72","72","0","0","0","0","0","0","72","72","72","72","72","72","72","72","72","72","0","72","0","NA","1","NA","0","12/24/15 14:39:33","Default description","no","chinese-japanese-korean","no","18","white","開始實驗A","768","legacy","F:\TCU\Lecture\Experimental_Psychology\2015Fall\Compatibility\0_preview\quickrun.csv","xpyriment","Interactive Ising","3.0.4","no","0","None","space","space","space","space","space","space","None","space","2000","4286","285","213","365","813","1166","2000","1372","legacy","1000","experiment","999","odd","418998","NA","NA","211978","NA","NA","NA","NA","471495","418995","NA","8910","NA","414709","473184","471681","8910","NA","474184","468490","448143","474187","405662","7225","7513","7729","8097","6056","2752","475187","468493","449145","475189","405665","475190","477294","NA","477192","477394","4681","471495","418998","NA","211978","NA","2752","Hommel2002EXP01","0","18002","9","yes","1024"
"y","yes","no","circle","0","0","2000","2000","black","no","xpyriment","legacy","red","green","yellow","blue","legacy","0","uniform","0","0","z","0","NA","NA","1","0","NA","1","NA","73","0","0","0","0","0","73","73","0","0","73","73","73","73","73","0","0","0","0","0","0","73","73","73","73","73","73","73","73","73","73","0","73","0","NA","1","NA","0","12/24/15 14:39:33","Default description","no","chinese-japanese-korean","no","18","white","開始實驗A","768","legacy","F:\TCU\Lecture\Experimental_Psychology\2015Fall\Compatibility\0_preview\quickrun.csv","xpyriment","Interactive Ising","3.0.4","no","0","None","space","space","space","space","space","space","None","space","2000","4286","285","213","365","813","1166","2000","1372","legacy","500","experiment","999","odd","418998","NA","NA","211978","NA","NA","NA","NA","478160","418995","NA","8910","NA","414709","479749","478232","8910","NA","480750","480752","448143","474187","405662","7225","7513","7729","8097","6056","2752","481253","481255","449145","475189","405665","481256","483360","NA","483258","483460","4681","478160","418998","NA","211978","NA","2752","Hommel2002EXP01","0","20002","10","yes","1024"
"n","yes","no","circle","0","0","2000","2000","black","no","xpyriment","legacy","blue","green","yellow","red","legacy","0","uniform","0","0","z","0","NA","NA","1","0","NA","1","NA","74","0","0","0","0","0","74","74","0","0","74","74","74","74","74","0","0","0","0","0","0","74","74","74","74","74","74","74","74","74","74","0","74","0","NA","1","NA","0","12/24/15 14:39:33","Default description","no","chinese-japanese-korean","no","18","white","開始實驗A","768","legacy","F:\TCU\Lecture\Experimental_Psychology\2015Fall\Compatibility\0_preview\quickrun.csv","xpyriment","Interactive Ising","3.0.4","no","0","None","space","space","space","space","space","space","None","space","2000","4286","285","213","365","813","1166","2000","1372","legacy","500","experiment","999","odd","418998","NA","NA","211978","NA","NA","NA","NA","484184","418995","NA","8910","NA","414709","485794","484276","8910","NA","486794","480752","486796","474187","405662","7225","7513","7729","8097","6056","2752","487296","481255","487298","475189","405665","487299","489403","NA","489301","489503","4681","484184","418998","NA","211978","NA","2752","Hommel2002EXP01","0","22002","11","yes","1024"
"n","yes","no","circle","0","0","2000","2000","black","no","xpyriment","legacy","green","yellow","red","blue","legacy","0","uniform","0","0","z","0","NA","NA","1","0","NA","1","NA","75","0","0","0","0","0","75","75","0","0","75","75","75","75","75","0","0","0","0","0","0","75","75","75","75","75","75","75","75","75","75","0","75","0","NA","1","NA","0","12/24/15 14:39:33","Default description","no","chinese-japanese-korean","no","18","white","開始實驗A","768","legacy","F:\TCU\Lecture\Experimental_Psychology\2015Fall\Compatibility\0_preview\quickrun.csv","xpyriment","Interactive Ising","3.0.4","no","0","None","space","space","space","space","space","space","None","space","2000","4286","285","213","365","813","1166","2000","1372","legacy","1500","experiment","999","odd","418998","NA","NA","211978","NA","NA","NA","NA","490232","418995","NA","8910","NA","414709","491849","490334","8910","NA","492849","480752","492851","474187","405662","7225","7513","7729","8097","6056","2752","494351","481255","494353","475189","405665","494353","496457","NA","496355","496557","4681","490232","418998","NA","211978","NA","2752","Hommel2002EXP01","0","24002","12","yes","1024"
"n","yes","no","circle","0","0","2000","2000","black","no","xpyriment","legacy","blue","red","yellow","green","legacy","0","uniform","0","0","z","0","NA","NA","1","0","NA","1","NA","76","0","0","0","0","0","76","76","0","0","76","76","76","76","76","0","0","0","0","0","0","76","76","76","76","76","76","76","76","76","76","0","76","0","NA","1","NA","0","12/24/15 14:39:33","Default description","no","chinese-japanese-korean","no","18","white","開始實驗A","768","legacy","F:\TCU\Lecture\Experimental_Psychology\2015Fall\Compatibility\0_preview\quickrun.csv","xpyriment","Interactive Ising","3.0.4","no","0","None","space","space","space","space","space","space","None","space","2000","4286","285","213","365","813","1166","2000","1372","legacy","1500","experiment","999","odd","418998","NA","NA","211978","NA","NA","NA","NA","497278","418995","NA","8910","NA","414709","498909","497391","8910","NA","499910","480752","499912","474187","405662","7225","7513","7729","8097","6056","2752","501412","481255","501414","475189","405665","501415","503519","NA","503417","503619","4681","497278","418998","NA","211978","NA","2752","Hommel2002EXP01","0","26002","13","yes","1024"
"y","yes","no","circle","0","0","2000","2000","black","no","xpyriment","legacy","red","yellow","blue","green","legacy","0","uniform","0","0","z","0","NA","NA","1","0","NA","1","NA","77","0","0","0","0","0","77","77","0","0","77","77","77","77","77","0","0","0","0","0","0","77","77","77","77","77","77","77","77","77","77","0","77","0","NA","1","NA","0","12/24/15 14:39:33","Default description","no","chinese-japanese-korean","no","18","white","開始實驗A","768","legacy","F:\TCU\Lecture\Experimental_Psychology\2015Fall\Compatibility\0_preview\quickrun.csv","xpyriment","Interactive Ising","3.0.4","no","0","None","space","space","space","space","space","space","None","space","2000","4286","285","213","365","813","1166","2000","1372","legacy","1000","experiment","999","odd","418998","NA","NA","211978","NA","NA","NA","NA","504338","418995","NA","8910","NA","414709","505988","504473","8910","NA","506988","506990","499912","474187","405662","7225","7513","7729","8097","6056","2752","507991","507993","501414","475189","405665","507994","510098","NA","509996","510198","4681","504338","418998","NA","211978","NA","2752","Hommel2002EXP01","0","28002","14","yes","1024"
"n","yes","no","rect","0","0","2000","2000","black","no","xpyriment","legacy","green","blue","red","yellow","legacy","0","uniform","0","0","/","0","NA","NA","1","0","NA","1","NA","78","0","0","0","0","0","78","78","0","0","78","78","78","78","78","0","0","0","0","0","0","78","78","78","78","78","78","78","78","78","78","0","78","0","NA","1","NA","0","12/24/15 14:39:33","Default description","no","chinese-japanese-korean","no","18","white","開始實驗A","768","legacy","F:\TCU\Lecture\Experimental_Psychology\2015Fall\Compatibility\0_preview\quickrun.csv","xpyriment","Interactive Ising","3.0.4","no","0","None","space","space","space","space","space","space","None","space","2000","4286","285","213","365","813","1166","2000","1372","legacy","1500","experiment","999","odd","418998","NA","NA","211978","NA","NA","NA","NA","510975","418995","NA","8910","NA","414709","512653","511150","8910","NA","513653","506990","499912","474187","513655","7225","7513","7729","8097","6056","2752","515155","507993","501414","475189","515157","515158","517262","NA","517160","517362","4681","510975","418998","NA","211978","NA","2752","Hommel2002EXP01","0","30002","15","yes","1024"
"y","yes","no","rect","0","0","2000","2000","black","no","xpyriment","legacy","green","blue","yellow","red","legacy","0","uniform","0","0","/","0","NA","NA","1","0","NA","1","NA","79","0","0","0","0","0","79","79","0","0","79","79","79","79","79","0","0","0","0","0","0","79","79","79","79","79","79","79","79","79","79","0","79","0","NA","1","NA","0","12/24/15 14:39:33","Default description","no","chinese-japanese-korean","no","18","white","開始實驗A","768","legacy","F:\TCU\Lecture\Experimental_Psychology\2015Fall\Compatibility\0_preview\quickrun.csv","xpyriment","Interactive Ising","3.0.4","no","0","None","space","space","space","space","space","space","None","space","2000","4286","285","213","365","813","1166","2000","1372","legacy","0","experiment","999","odd","418998","NA","NA","211978","NA","NA","NA","NA","518143","418995","NA","8910","NA","414709","519727","518211","8910","NA","520727","506990","499912","520729","513655","7225","7513","7729","8097","6056","2752","520730","507993","501414","520732","515157","520732","522836","NA","522734","522936","4681","518143","418998","NA","211978","NA","2752","Hommel2002EXP01","0","32002","16","yes","1024"
"n","yes","no","circle","0","0","2000","2000","black","no","xpyriment","legacy","blue","green","yellow","red","legacy","0","uniform","0","0","z","0","NA","NA","1","0","NA","1","NA","80","0","0","0","0","0","80","80","0","0","80","80","80","80","80","0","0","0","0","0","0","80","80","80","80","80","80","80","80","80","80","0","80","0","NA","1","NA","0","12/24/15 14:39:33","Default description","no","chinese-japanese-korean","no","18","white","開始實驗A","768","legacy","F:\TCU\Lecture\Experimental_Psychology\2015Fall\Compatibility\0_preview\quickrun.csv","xpyriment","Interactive Ising","3.0.4","no","0","None","space","space","space","space","space","space","None","space","2000","4286","285","213","365","813","1166","2000","1372","legacy","0","experiment","999","odd","418998","NA","NA","211978","NA","NA","NA","NA","523891","418995","NA","8910","NA","414709","525499","523984","8910","NA","526500","506990","526502","520729","513655","7225","7513","7729","8097","6056","2752","526503","507993","526506","520732","515157","526506","528610","NA","528508","528710","4681","523891","418998","NA","211978","NA","2752","Hommel2002EXP01","0","34002","17","yes","1024"
"n","yes","no","circle","0","0","2000","2000","black","no","xpyriment","legacy","yellow","green","red","blue","legacy","0","uniform","0","0","z","0","NA","NA","1","0","NA","1","NA","81","0","0","0","0","0","81","81","0","0","81","81","81","81","81","0","0","0","0","0","0","81","81","81","81","81","81","81","81","81","81","0","81","0","NA","1","NA","0","12/24/15 14:39:33","Default description","no","chinese-japanese-korean","no","18","white","開始實驗A","768","legacy","F:\TCU\Lecture\Experimental_Psychology\2015Fall\Compatibility\0_preview\quickrun.csv","xpyriment","Interactive Ising","3.0.4","no","0","None","space","space","space","space","space","space","None","space","2001","4286","285","213","365","813","1166","2001","1372","legacy","0","experiment","999","odd","418998","NA","NA","211978","NA","NA","NA","NA","529427","418995","NA","8910","NA","414709","531047","529531","8910","NA","532047","506990","532049","520729","513655","7225","7513","7729","8097","6056","2752","532050","507993","532052","520732","515157","532052","534157","NA","534055","534257","4681","529427","418998","NA","211978","NA","2752","Hommel2002EXP01","0","36003","18","yes","1024"
"y","yes","no","rect","0","0","2000","2000","black","no","xpyriment","legacy","green","yellow","red","blue","legacy","0","uniform","0","0","/","0","NA","NA","1","0","NA","1","NA","82","0","0","0","0","0","82","82","0","0","82","82","82","82","82","0","0","0","0","0","0","82","82","82","82","82","82","82","82","82","82","0","82","0","NA","1","NA","0","12/24/15 14:39:33","Default description","no","chinese-japanese-korean","no","18","white","開始實驗A","768","legacy","F:\TCU\Lecture\Experimental_Psychology\2015Fall\Compatibility\0_preview\quickrun.csv","xpyriment","Interactive Ising","3.0.4","no","0","None","space","space","space","space","space","space","None","space","2000","4286","285","213","365","813","1166","2000","1372","legacy","1500","experiment","999","odd","418998","NA","NA","211978","NA","NA","NA","NA","534982","418995","NA","8910","NA","414709","536610","535095","8910","NA","537611","506990","532049","537613","513655","7225","7513","7729","8097","6056","2752","539114","507993","532052","539117","515157","539117","541221","NA","541119","541322","4681","534982","418998","NA","211978","NA","2752","Hommel2002EXP01","0","38003","19","yes","1024"
"y","yes","no","rect","0","0","2000","2000","black","no","xpyriment","legacy","green","blue","yellow","red","legacy","0","uniform","0","0","/","0","NA","NA","1","0","NA","1","NA","83","0","0","0","0","0","83","83","0","0","83","83","83","83","83","0","0","0","0","0","0","83","83","83","83","83","83","83","83","83","83","0","83","0","NA","1","NA","0","12/24/15 14:39:33","Default description","no","chinese-japanese-korean","no","18","white","開始實驗A","768","legacy","F:\TCU\Lecture\Experimental_Psychology\2015Fall\Compatibility\0_preview\quickrun.csv","xpyriment","Interactive Ising","3.0.4","no","0","None","space","space","space","space","space","space","None","space","2000","4286","285","213","365","813","1166","2000","1372","legacy","500","experiment","999","odd","418998","NA","NA","211978","NA","NA","NA","NA","542055","418995","NA","8910","NA","414709","543694","542179","8910","NA","544695","506990","532049","544698","513655","7225","7513","7729","8097","6056","2752","545198","507993","532052","545200","515157","545201","547305","NA","547203","547405","4681","542055","418998","NA","211978","NA","2752","Hommel2002EXP01","0","40003","20","yes","1024"
