"Compatibility","EXPA","EXPB","Shape","acc","accuracy","average_response_time","avg_rt","background","bidi","canvas_backend","clock_backend","color1","color2","color3","color4","color_backend","compensation","coordinates","correct","correct_Target_response","correct_response","count_Block_Break","count_Block_EXPERIMENT_A","count_Block_EXPERIMENT_B","count_Block_Parctice_B","count_Block_Practice_A","count_Block_reset_EXPERIMENT_A","count_Block_reset_EXPERIMENT_B","count_Block_reset_Practice_A","count_Block_reset_Practice_B","count_Break","count_Decide_Color","count_EXPERIMENT_A","count_EXPERIMENT_B","count_EXP_A","count_EXP_B","count_Initial","count_Intertrial","count_Practice_A","count_Practice_B","count_Prepare","count_Prepare_circle_compatible","count_Prepare_circle_incompatible","count_Prepare_rect_compatible","count_Prepare_rect_incompatible","count_Procedure_Ins01","count_Procedure_Ins02","count_Procedure_Ins03","count_Ready","count_Response_Ins","count_Select_Experiment","count_Target","count_Target_circle_compatible","count_Target_circle_incompatible","count_Target_rect_compatible","count_Target_rect_incompatible","count_Target_response","count_Target_response_BadResponse","count_Target_response_Correct","count_Target_response_Wrong","count_Target_response_logger","count_Title","count_Trial","count_Trial_EXPERIMENT_A","count_Trial_EXPERIMENT_B","count_Trial_Practice_A","count_Trial_Practice_B","count_experiment","datetime","description","font_bold","font_family","font_italic","font_size","foreground","form_response","height","keyboard_backend","logfile","mouse_backend","opensesame_codename","opensesame_version","practice","repeat_cycle","response","response_Block_Break","response_Break","response_Procedure_Ins01","response_Procedure_Ins02","response_Procedure_Ins03","response_Ready","response_Response_Ins","response_Target_response","response_Title","response_time","response_time_Block_Break","response_time_Break","response_time_Procedure_Ins01","response_time_Procedure_Ins02","response_time_Procedure_Ins03","response_time_Ready","response_time_Response_Ins","response_time_Target_response","response_time_Title","sampler_backend","soa","start","subject_nr","subject_parity","time_Block_Break","time_Block_EXPERIMENT_A","time_Block_EXPERIMENT_B","time_Block_Parctice_B","time_Block_Practice_A","time_Block_reset_EXPERIMENT_A","time_Block_reset_EXPERIMENT_B","time_Block_reset_Practice_A","time_Block_reset_Practice_B","time_Break","time_Decide_Color","time_EXPERIMENT_A","time_EXPERIMENT_B","time_EXP_A","time_EXP_B","time_Initial","time_Intertrial","time_Practice_A","time_Practice_B","time_Prepare","time_Prepare_circle_compatible","time_Prepare_circle_incompatible","time_Prepare_rect_compatible","time_Prepare_rect_incompatible","time_Procedure_Ins01","time_Procedure_Ins02","time_Procedure_Ins03","time_Ready","time_Response_Ins","time_Select_Experiment","time_Target","time_Target_circle_compatible","time_Target_circle_incompatible","time_Target_rect_compatible","time_Target_rect_incompatible","time_Target_response","time_Target_response_BadResponse","time_Target_response_Correct","time_Target_response_Wrong","time_Target_response_logger","time_Title","time_Trial","time_Trial_EXPERIMENT_A","time_Trial_EXPERIMENT_B","time_Trial_Practice_A","time_Trial_Practice_B","time_experiment","title","total_correct","total_response_time","total_responses","uniform_coordinates","width"
"n","yes","no","rect","0","0","1172","1172","black","no","xpyriment","legacy","yellow","green","blue","red","legacy","0","uniform","0","0","/","1","NA","NA","NA","0","NA","NA","0","NA","NA","0","0","0","0","0","0","0","0","0","0","0","0","0","0","0","0","0","0","0","0","0","0","0","0","0","0","0","0","0","0","0","0","NA","NA","0","NA","0","12/30/15 00:02:06","Default description","no","chinese-japanese-korean","no","18","white","開始實驗A","768","legacy","C:\Users\Evonne\Desktop\test\Compatibility\0_preview\quickrun.csv","xpyriment","Interactive Ising","3.0.2","NA","0","z","NA","NA","space","space","z","space","space","z","space","1172","NA","NA","1613","3717","2541","2832","5102","1172","3746","legacy","0","experiment","999","odd","NA","NA","NA","NA","43901","NA","NA","NA","NA","NA","47598","NA","NA","43890","NA","49405","47870","43890","NA","50406","NA","NA","NA","50410","33167","34785","38509","41056","28049","12558","50411","NA","NA","NA","50416","50417","NA","NA","51595","51696","24145","47597","NA","NA","43901","NA","10978","Hommel2002EXP01","0","1172","1","yes","1024"
"n","yes","no","circle","50","50","1142","1142","black","no","xpyriment","legacy","green","yellow","red","blue","legacy","0","uniform","1","1","z","1","NA","NA","NA","0","NA","NA","0","NA","NA","1","0","0","0","0","1","1","0","0","1","1","1","1","1","0","0","0","0","0","0","1","1","1","1","1","1","1","1","1","1","0","1","NA","NA","0","NA","0","12/30/15 00:02:06","Default description","no","chinese-japanese-korean","no","18","white","開始實驗A","768","legacy","C:\Users\Evonne\Desktop\test\Compatibility\0_preview\quickrun.csv","xpyriment","Interactive Ising","3.0.2","NA","0","z","NA","NA","space","space","z","space","space","z","space","1113","NA","NA","1613","3717","2541","2832","5102","1113","3746","legacy","1000","experiment","999","odd","NA","NA","NA","NA","43901","NA","NA","NA","NA","NA","55630","NA","NA","43890","NA","57399","55867","43890","NA","58399","NA","58403","NA","50410","33167","34785","38509","41056","28049","12558","59405","NA","59409","NA","50416","59411","NA","60532","51595","60632","24145","55629","NA","NA","43901","NA","10978","Hommel2002EXP01","1","2285","2","yes","1024"
"y","yes","no","circle","66.6666666667","66.6666666667","1188","1188","black","no","xpyriment","legacy","blue","yellow","red","green","legacy","0","uniform","1","1","z","1","NA","NA","NA","0","NA","NA","0","NA","NA","2","0","0","0","0","2","2","0","0","2","2","2","2","2","0","0","0","0","0","0","2","2","2","2","2","2","2","2","2","2","0","2","NA","NA","0","NA","0","12/30/15 00:02:06","Default description","no","chinese-japanese-korean","no","18","white","開始實驗A","768","legacy","C:\Users\Evonne\Desktop\test\Compatibility\0_preview\quickrun.csv","xpyriment","Interactive Ising","3.0.2","NA","0","z","NA","NA","space","space","z","space","space","z","space","1280","NA","NA","1613","3717","2541","2832","5102","1280","3746","legacy","1500","experiment","999","odd","NA","NA","NA","NA","43901","NA","NA","NA","NA","NA","64267","NA","NA","43890","NA","66048","64510","43890","NA","67049","67053","58403","NA","50410","33167","34785","38509","41056","28049","12558","68554","68559","59409","NA","50416","68560","NA","69848","51595","69949","24145","64266","NA","NA","43901","NA","10978","Hommel2002EXP01","2","3565","3","yes","1024"
"n","yes","no","circle","75","75","1099","1099","black","no","xpyriment","legacy","yellow","green","red","blue","legacy","0","uniform","1","1","z","1","NA","NA","NA","0","NA","NA","0","NA","NA","3","0","0","0","0","3","3","0","0","3","3","3","3","3","0","0","0","0","0","0","3","3","3","3","3","3","3","3","3","3","0","3","NA","NA","0","NA","0","12/30/15 00:02:06","Default description","no","chinese-japanese-korean","no","18","white","開始實驗A","768","legacy","C:\Users\Evonne\Desktop\test\Compatibility\0_preview\quickrun.csv","xpyriment","Interactive Ising","3.0.2","NA","0","z","NA","NA","space","space","z","space","space","z","space","832","NA","NA","1613","3717","2541","2832","5102","832","3746","legacy","1000","experiment","999","odd","NA","NA","NA","NA","43901","NA","NA","NA","NA","NA","73466","NA","NA","43890","NA","75223","73692","43890","NA","76224","67053","76229","NA","50410","33167","34785","38509","41056","28049","12558","77229","68559","77233","NA","50416","77234","NA","78073","51595","78173","24145","73465","NA","NA","43901","NA","10978","Hommel2002EXP01","3","4397","4","yes","1024"
"n","yes","no","rect","80","80","1049","1049","black","no","xpyriment","legacy","yellow","green","blue","red","legacy","0","uniform","1","1","/","1","NA","NA","NA","0","NA","NA","0","NA","NA","4","0","0","0","0","4","4","0","0","4","4","4","4","4","0","0","0","0","0","0","4","4","4","4","4","4","4","4","4","4","0","4","NA","NA","0","NA","0","12/30/15 00:02:06","Default description","no","chinese-japanese-korean","no","18","white","開始實驗A","768","legacy","C:\Users\Evonne\Desktop\test\Compatibility\0_preview\quickrun.csv","xpyriment","Interactive Ising","3.0.2","NA","0","/","NA","NA","space","space","z","space","space","/","space","849","NA","NA","1613","3717","2541","2832","5102","849","3746","legacy","1000","experiment","999","odd","NA","NA","NA","NA","43901","NA","NA","NA","NA","NA","82200","NA","NA","43890","NA","83976","82440","43890","NA","84976","67053","76229","NA","84981","33167","34785","38509","41056","28049","12558","85981","68559","77233","NA","85986","85986","NA","86850","51595","86951","24145","82200","NA","NA","43901","NA","10978","Hommel2002EXP01","4","5246","5","yes","1024"
"n","yes","no","circle","83.3333333333","83.3333333333","1028","1028","black","no","xpyriment","legacy","green","blue","yellow","red","legacy","0","uniform","1","1","z","1","NA","NA","NA","0","NA","NA","0","NA","NA","5","0","0","0","0","5","5","0","0","5","5","5","5","5","0","0","0","0","0","0","5","5","5","5","5","5","5","5","5","5","0","5","NA","NA","0","NA","0","12/30/15 00:02:06","Default description","no","chinese-japanese-korean","no","18","white","開始實驗A","768","legacy","C:\Users\Evonne\Desktop\test\Compatibility\0_preview\quickrun.csv","xpyriment","Interactive Ising","3.0.2","NA","0","z","NA","NA","space","space","z","space","space","z","space","922","NA","NA","1613","3717","2541","2832","5102","922","3746","legacy","0","experiment","999","odd","NA","NA","NA","NA","43901","NA","NA","NA","NA","NA","90425","NA","NA","43890","NA","92199","90669","43890","NA","93200","67053","93204","NA","84981","33167","34785","38509","41056","28049","12558","93205","68559","93209","NA","85986","93210","NA","94140","51595","94240","24145","90424","NA","NA","43901","NA","10978","Hommel2002EXP01","5","6168","6","yes","1024"
"n","yes","no","circle","85.7142857143","85.7142857143","998","998","black","no","xpyriment","legacy","blue","yellow","red","green","legacy","0","uniform","1","1","z","1","NA","NA","NA","0","NA","NA","0","NA","NA","6","0","0","0","0","6","6","0","0","6","6","6","6","6","0","0","0","0","0","0","6","6","6","6","6","6","6","6","6","6","0","6","NA","NA","0","NA","0","12/30/15 00:02:06","Default description","no","chinese-japanese-korean","no","18","white","開始實驗A","768","legacy","C:\Users\Evonne\Desktop\test\Compatibility\0_preview\quickrun.csv","xpyriment","Interactive Ising","3.0.2","NA","0","z","NA","NA","space","space","z","space","space","z","space","818","NA","NA","1613","3717","2541","2832","5102","818","3746","legacy","1500","experiment","999","odd","NA","NA","NA","NA","43901","NA","NA","NA","NA","NA","98030","NA","NA","43890","NA","99825","98288","43890","NA","100826","67053","100831","NA","84981","33167","34785","38509","41056","28049","12558","102332","68559","102336","NA","85986","102337","NA","103162","51595","103262","24145","98029","NA","NA","43901","NA","10978","Hommel2002EXP01","6","6986","7","yes","1024"
"y","yes","no","rect","87.5","87.5","977","977","black","no","xpyriment","legacy","yellow","red","blue","green","legacy","0","uniform","1","1","/","1","NA","NA","NA","0","NA","NA","0","NA","NA","7","0","0","0","0","7","7","0","0","7","7","7","7","7","0","0","0","0","0","0","7","7","7","7","7","7","7","7","7","7","0","7","NA","NA","0","NA","0","12/30/15 00:02:06","Default description","no","chinese-japanese-korean","no","18","white","開始實驗A","768","legacy","C:\Users\Evonne\Desktop\test\Compatibility\0_preview\quickrun.csv","xpyriment","Interactive Ising","3.0.2","NA","0","/","NA","NA","space","space","z","space","space","/","space","832","NA","NA","1613","3717","2541","2832","5102","832","3746","legacy","0","experiment","999","odd","NA","NA","NA","NA","43901","NA","NA","NA","NA","NA","107010","NA","NA","43890","NA","108819","107280","43890","NA","109819","67053","100831","109825","84981","33167","34785","38509","41056","28049","12558","109825","68559","102336","109830","85986","109831","NA","110680","51595","110781","24145","107009","NA","NA","43901","NA","10978","Hommel2002EXP01","7","7818","8","yes","1024"
"y","yes","no","circle","77.7777777778","77.7777777778","958","958","black","no","xpyriment","legacy","green","blue","red","yellow","legacy","0","uniform","0","0","z","1","NA","NA","NA","0","NA","NA","0","NA","NA","8","0","0","0","0","8","8","0","0","8","8","8","8","8","0","0","0","0","0","0","8","8","8","8","8","8","8","8","8","8","0","8","NA","NA","0","NA","0","12/30/15 00:02:06","Default description","no","chinese-japanese-korean","no","18","white","開始實驗A","768","legacy","C:\Users\Evonne\Desktop\test\Compatibility\0_preview\quickrun.csv","xpyriment","Interactive Ising","3.0.2","NA","0","/","NA","NA","space","space","z","space","space","/","space","811","NA","NA","1613","3717","2541","2832","5102","811","3746","legacy","1000","experiment","999","odd","NA","NA","NA","NA","43901","NA","NA","NA","NA","NA","114633","NA","NA","43890","NA","116436","114872","43890","NA","117437","117442","100831","109825","84981","33167","34785","38509","41056","28049","12558","118443","118450","102336","109830","85986","118451","NA","110680","119280","119381","24145","114632","NA","NA","43901","NA","10978","Hommel2002EXP01","7","8629","9","yes","1024"
"y","yes","no","circle","80","80","937","937","black","no","xpyriment","legacy","green","blue","yellow","red","legacy","0","uniform","1","1","z","1","NA","NA","NA","0","NA","NA","0","NA","NA","9","0","0","0","0","9","9","0","0","9","9","9","9","9","0","0","0","0","0","0","9","9","9","9","9","9","9","9","9","9","0","9","NA","NA","0","NA","0","12/30/15 00:02:06","Default description","no","chinese-japanese-korean","no","18","white","開始實驗A","768","legacy","C:\Users\Evonne\Desktop\test\Compatibility\0_preview\quickrun.csv","xpyriment","Interactive Ising","3.0.2","NA","0","z","NA","NA","space","space","z","space","space","z","space","744","NA","NA","1613","3717","2541","2832","5102","744","3746","legacy","500","experiment","999","odd","NA","NA","NA","NA","43901","NA","NA","NA","NA","NA","122912","NA","NA","43890","NA","124644","123114","43890","NA","125644","125649","100831","109825","84981","33167","34785","38509","41056","28049","12558","126149","126153","102336","109830","85986","126154","NA","126905","119280","127005","24145","122911","NA","NA","43901","NA","10978","Hommel2002EXP01","8","9373","10","yes","1024"
"y","yes","no","rect","81.8181818182","81.8181818182","930","930","black","no","xpyriment","legacy","red","blue","green","yellow","legacy","0","uniform","1","1","/","1","NA","NA","NA","0","NA","NA","0","NA","NA","10","0","0","0","0","10","10","0","0","10","10","10","10","10","0","0","0","0","0","0","10","10","10","10","10","10","10","10","10","10","0","10","NA","NA","0","NA","0","12/30/15 00:02:06","Default description","no","chinese-japanese-korean","no","18","white","開始實驗A","768","legacy","C:\Users\Evonne\Desktop\test\Compatibility\0_preview\quickrun.csv","xpyriment","Interactive Ising","3.0.2","NA","0","/","NA","NA","space","space","z","space","space","/","space","867","NA","NA","1613","3717","2541","2832","5102","867","3746","legacy","1500","experiment","999","odd","NA","NA","NA","NA","43901","NA","NA","NA","NA","NA","130924","NA","NA","43890","NA","132680","131146","43890","NA","133681","125649","100831","133686","84981","33167","34785","38509","41056","28049","12558","135187","126153","102336","135191","85986","135192","NA","136072","119280","136173","24145","130923","NA","NA","43901","NA","10978","Hommel2002EXP01","9","10240","11","yes","1024"
"y","yes","no","circle","83.3333333333","83.3333333333","980","980","black","no","xpyriment","legacy","red","blue","green","yellow","legacy","0","uniform","1","1","z","1","NA","NA","NA","0","NA","NA","0","NA","NA","11","0","0","0","0","11","11","0","0","11","11","11","11","11","0","0","0","0","0","0","11","11","11","11","11","11","11","11","11","11","0","11","NA","NA","0","NA","0","12/30/15 00:02:06","Default description","no","chinese-japanese-korean","no","18","white","開始實驗A","768","legacy","C:\Users\Evonne\Desktop\test\Compatibility\0_preview\quickrun.csv","xpyriment","Interactive Ising","3.0.2","NA","0","z","NA","NA","space","space","z","space","space","z","space","1528","NA","NA","1613","3717","2541","2832","5102","1528","3746","legacy","0","experiment","999","odd","NA","NA","NA","NA","43901","NA","NA","NA","NA","NA","139854","NA","NA","43890","NA","141642","140093","43890","NA","142642","142647","100831","133686","84981","33167","34785","38509","41056","28049","12558","142647","142652","102336","135191","85986","142653","NA","144198","119280","144298","24145","139853","NA","NA","43901","NA","10978","Hommel2002EXP01","10","11768","12","yes","1024"
"n","yes","no","rect","84.6153846154","84.6153846154","964","964","black","no","xpyriment","legacy","red","yellow","blue","green","legacy","0","uniform","1","1","/","1","NA","NA","NA","0","NA","NA","0","NA","NA","12","0","0","0","0","12","12","0","0","12","12","12","12","12","0","0","0","0","0","0","12","12","12","12","12","12","12","12","12","12","0","12","NA","NA","0","NA","0","12/30/15 00:02:06","Default description","no","chinese-japanese-korean","no","18","white","開始實驗A","768","legacy","C:\Users\Evonne\Desktop\test\Compatibility\0_preview\quickrun.csv","xpyriment","Interactive Ising","3.0.2","NA","0","/","NA","NA","space","space","z","space","space","/","space","770","NA","NA","1613","3717","2541","2832","5102","770","3746","legacy","1000","experiment","999","odd","NA","NA","NA","NA","43901","NA","NA","NA","NA","NA","147861","NA","NA","43890","NA","149626","148090","43890","NA","150626","142647","100831","133686","150631","33167","34785","38509","41056","28049","12558","151632","142652","102336","135191","151638","151638","NA","152425","119280","152525","24145","147860","NA","NA","43901","NA","10978","Hommel2002EXP01","11","12538","13","yes","1024"
"y","yes","no","rect","85.7142857143","85.7142857143","951","951","black","no","xpyriment","legacy","green","blue","red","yellow","legacy","0","uniform","1","1","/","1","NA","NA","NA","0","NA","NA","0","NA","NA","13","0","0","0","0","13","13","0","0","13","13","13","13","13","0","0","0","0","0","0","13","13","13","13","13","13","13","13","13","13","0","13","NA","NA","0","NA","0","12/30/15 00:02:06","Default description","no","chinese-japanese-korean","no","18","white","開始實驗A","768","legacy","C:\Users\Evonne\Desktop\test\Compatibility\0_preview\quickrun.csv","xpyriment","Interactive Ising","3.0.2","NA","0","/","NA","NA","space","space","z","space","space","/","space","778","NA","NA","1613","3717","2541","2832","5102","778","3746","legacy","1000","experiment","999","odd","NA","NA","NA","NA","43901","NA","NA","NA","NA","NA","156126","NA","NA","43890","NA","157906","156375","43890","NA","158907","142647","100831","158912","150631","33167","34785","38509","41056","28049","12558","159912","142652","102336","159917","151638","159917","NA","160704","119280","160804","24145","156126","NA","NA","43901","NA","10978","Hommel2002EXP01","12","13316","14","yes","1024"
"y","yes","no","rect","86.6666666667","86.6666666667","938","938","black","no","xpyriment","legacy","green","red","blue","yellow","legacy","0","uniform","1","1","/","1","NA","NA","NA","0","NA","NA","0","NA","NA","14","0","0","0","0","14","14","0","0","14","14","14","14","14","0","0","0","0","0","0","14","14","14","14","14","14","14","14","14","14","0","14","NA","NA","0","NA","0","12/30/15 00:02:06","Default description","no","chinese-japanese-korean","no","18","white","開始實驗A","768","legacy","C:\Users\Evonne\Desktop\test\Compatibility\0_preview\quickrun.csv","xpyriment","Interactive Ising","3.0.2","NA","0","/","NA","NA","space","space","z","space","space","/","space","768","NA","NA","1613","3717","2541","2832","5102","768","3746","legacy","500","experiment","999","odd","NA","NA","NA","NA","43901","NA","NA","NA","NA","NA","164668","NA","NA","43890","NA","166542","165006","43890","NA","167543","142647","100831","167554","150631","33167","34785","38509","41056","28049","12558","168055","142652","102336","168060","151638","168061","NA","168846","119280","168947","24145","164667","NA","NA","43901","NA","10978","Hommel2002EXP01","13","14084","15","yes","1024"
"n","yes","no","rect","87.5","87.5","930","930","black","no","xpyriment","legacy","red","yellow","green","blue","legacy","0","uniform","1","1","/","1","NA","NA","NA","0","NA","NA","0","NA","NA","15","0","0","0","0","15","15","0","0","15","15","15","15","15","0","0","0","0","0","0","15","15","15","15","15","15","15","15","15","15","0","15","NA","NA","0","NA","0","12/30/15 00:02:06","Default description","no","chinese-japanese-korean","no","18","white","開始實驗A","768","legacy","C:\Users\Evonne\Desktop\test\Compatibility\0_preview\quickrun.csv","xpyriment","Interactive Ising","3.0.2","NA","0","/","NA","NA","space","space","z","space","space","/","space","808","NA","NA","1613","3717","2541","2832","5102","808","3746","legacy","1500","experiment","999","odd","NA","NA","NA","NA","43901","NA","NA","NA","NA","NA","172566","NA","NA","43890","NA","174319","172789","43890","NA","175320","142647","100831","167554","175325","33167","34785","38509","41056","28049","12558","176825","142652","102336","168060","176829","176830","NA","177655","119280","177756","24145","172565","NA","NA","43901","NA","10978","Hommel2002EXP01","14","14892","16","yes","1024"
"n","yes","no","circle","82.3529411765","82.3529411765","934","934","black","no","xpyriment","legacy","blue","green","red","yellow","legacy","0","uniform","0","0","z","1","NA","NA","NA","0","NA","NA","0","NA","NA","16","0","0","0","0","16","16","0","0","16","16","16","16","16","0","0","0","0","0","0","16","16","16","16","16","16","16","16","16","16","0","16","NA","NA","0","NA","0","12/30/15 00:02:06","Default description","no","chinese-japanese-korean","no","18","white","開始實驗A","768","legacy","C:\Users\Evonne\Desktop\test\Compatibility\0_preview\quickrun.csv","xpyriment","Interactive Ising","3.0.2","NA","0","/","NA","NA","space","space","z","space","space","/","space","987","NA","NA","1613","3717","2541","2832","5102","987","3746","legacy","0","experiment","999","odd","NA","NA","NA","NA","43901","NA","NA","NA","NA","NA","181519","NA","NA","43890","NA","183308","181773","43890","NA","184309","142647","184314","167554","175325","33167","34785","38509","41056","28049","12558","184315","142652","184319","168060","176829","184319","NA","177655","185315","185415","24145","181518","NA","NA","43901","NA","10978","Hommel2002EXP01","14","15879","17","yes","1024"
"y","yes","no","rect","83.3333333333","83.3333333333","924","924","black","no","xpyriment","legacy","blue","green","red","yellow","legacy","0","uniform","1","1","/","1","NA","NA","NA","0","NA","NA","0","NA","NA","17","0","0","0","0","17","17","0","0","17","17","17","17","17","0","0","0","0","0","0","17","17","17","17","17","17","17","17","17","17","0","17","NA","NA","0","NA","0","12/30/15 00:02:06","Default description","no","chinese-japanese-korean","no","18","white","開始實驗A","768","legacy","C:\Users\Evonne\Desktop\test\Compatibility\0_preview\quickrun.csv","xpyriment","Interactive Ising","3.0.2","NA","0","/","NA","NA","space","space","z","space","space","/","space","764","NA","NA","1613","3717","2541","2832","5102","764","3746","legacy","500","experiment","999","odd","NA","NA","NA","NA","43901","NA","NA","NA","NA","NA","188926","NA","NA","43890","NA","190706","189162","43890","NA","191707","142647","184314","191712","175325","33167","34785","38509","41056","28049","12558","192212","142652","184319","192217","176829","192217","NA","192998","185315","193098","24145","188925","NA","NA","43901","NA","10978","Hommel2002EXP01","15","16643","18","yes","1024"
"y","yes","no","circle","84.2105263158","84.2105263158","915","915","black","no","xpyriment","legacy","green","blue","yellow","red","legacy","0","uniform","1","1","z","1","NA","NA","NA","0","NA","NA","0","NA","NA","18","0","0","0","0","18","18","0","0","18","18","18","18","18","0","0","0","0","0","0","18","18","18","18","18","18","18","18","18","18","0","18","NA","NA","0","NA","0","12/30/15 00:02:06","Default description","no","chinese-japanese-korean","no","18","white","開始實驗A","768","legacy","C:\Users\Evonne\Desktop\test\Compatibility\0_preview\quickrun.csv","xpyriment","Interactive Ising","3.0.2","NA","0","z","NA","NA","space","space","z","space","space","z","space","752","NA","NA","1613","3717","2541","2832","5102","752","3746","legacy","1000","experiment","999","odd","NA","NA","NA","NA","43901","NA","NA","NA","NA","NA","196927","NA","NA","43890","NA","198660","197118","43890","NA","199661","199667","184314","191712","175325","33167","34785","38509","41056","28049","12558","200667","200672","184319","192217","176829","200673","NA","201433","185315","201533","24145","196927","NA","NA","43901","NA","10978","Hommel2002EXP01","16","17395","19","yes","1024"
"y","yes","no","circle","85","85","908","908","black","no","xpyriment","legacy","blue","red","yellow","green","legacy","0","uniform","1","1","z","1","NA","NA","NA","0","NA","NA","0","NA","NA","19","0","0","0","0","19","19","0","0","19","19","19","19","19","0","0","0","0","0","0","19","19","19","19","19","19","19","19","19","19","0","19","NA","NA","0","NA","0","12/30/15 00:02:06","Default description","no","chinese-japanese-korean","no","18","white","開始實驗A","768","legacy","C:\Users\Evonne\Desktop\test\Compatibility\0_preview\quickrun.csv","xpyriment","Interactive Ising","3.0.2","NA","0","z","NA","NA","space","space","z","space","space","z","space","775","NA","NA","1613","3717","2541","2832","5102","775","3746","legacy","0","experiment","999","odd","NA","NA","NA","NA","43901","NA","NA","NA","NA","NA","205691","NA","NA","43890","NA","207375","205837","43890","NA","208375","208380","184314","191712","175325","33167","34785","38509","41056","28049","12558","208381","208386","184319","192217","176829","208387","NA","209180","185315","209281","24145","205690","NA","NA","43901","NA","10978","Hommel2002EXP01","17","18170","20","yes","1024"
"n","yes","no","circle","85.7142857143","85.7142857143","899","899","black","no","xpyriment","legacy","yellow","red","green","blue","legacy","0","uniform","1","1","z","1","NA","NA","NA","0","NA","NA","0","NA","NA","20","0","0","0","0","20","20","0","0","20","20","20","20","20","0","0","0","0","0","0","20","20","20","20","20","20","20","20","20","20","0","20","NA","NA","0","NA","0","12/30/15 00:02:06","Default description","no","chinese-japanese-korean","no","18","white","開始實驗A","768","legacy","C:\Users\Evonne\Desktop\test\Compatibility\0_preview\quickrun.csv","xpyriment","Interactive Ising","3.0.2","NA","0","z","NA","NA","space","space","z","space","space","z","space","717","NA","NA","1613","3717","2541","2832","5102","717","3746","legacy","500","experiment","999","odd","NA","NA","NA","NA","43901","NA","NA","NA","NA","NA","213116","NA","NA","43890","NA","214775","213238","43890","NA","215776","208380","215781","191712","175325","33167","34785","38509","41056","28049","12558","216281","208386","216286","192217","176829","216287","NA","217012","185315","217113","24145","213116","NA","NA","43901","NA","10978","Hommel2002EXP01","18","18887","21","yes","1024"
"n","yes","no","rect","86.3636363636","86.3636363636","894","894","black","no","xpyriment","legacy","green","blue","red","yellow","legacy","0","uniform","1","1","/","1","NA","NA","NA","0","NA","NA","0","NA","NA","21","0","0","0","0","21","21","0","0","21","21","21","21","21","0","0","0","0","0","0","21","21","21","21","21","21","21","21","21","21","0","21","NA","NA","0","NA","0","12/30/15 00:02:06","Default description","no","chinese-japanese-korean","no","18","white","開始實驗A","768","legacy","C:\Users\Evonne\Desktop\test\Compatibility\0_preview\quickrun.csv","xpyriment","Interactive Ising","3.0.2","NA","0","/","NA","NA","space","space","z","space","space","/","space","799","NA","NA","1613","3717","2541","2832","5102","799","3746","legacy","0","experiment","999","odd","NA","NA","NA","NA","43901","NA","NA","NA","NA","NA","220672","NA","NA","43890","NA","222389","220852","43890","NA","223389","208380","215781","191712","223394","33167","34785","38509","41056","28049","12558","223395","208386","216286","192217","223400","223401","NA","224214","185315","224314","24145","220671","NA","NA","43901","NA","10978","Hommel2002EXP01","19","19686","22","yes","1024"
"y","yes","no","rect","86.9565217391","86.9565217391","888","888","black","no","xpyriment","legacy","red","green","blue","yellow","legacy","0","uniform","1","1","/","1","NA","NA","NA","0","NA","NA","0","NA","NA","22","0","0","0","0","22","22","0","0","22","22","22","22","22","0","0","0","0","0","0","22","22","22","22","22","22","22","22","22","22","0","22","NA","NA","0","NA","0","12/30/15 00:02:06","Default description","no","chinese-japanese-korean","no","18","white","開始實驗A","768","legacy","C:\Users\Evonne\Desktop\test\Compatibility\0_preview\quickrun.csv","xpyriment","Interactive Ising","3.0.2","NA","0","/","NA","NA","space","space","z","space","space","/","space","747","NA","NA","1613","3717","2541","2832","5102","747","3746","legacy","0","experiment","999","odd","NA","NA","NA","NA","43901","NA","NA","NA","NA","NA","228203","NA","NA","43890","NA","229933","228399","43890","NA","230933","208380","215781","230937","223394","33167","34785","38509","41056","28049","12558","230938","208386","216286","230942","223400","230943","NA","231697","185315","231797","24145","228202","NA","NA","43901","NA","10978","Hommel2002EXP01","20","20433","23","yes","1024"
"n","yes","no","rect","87.5","87.5","885","885","black","no","xpyriment","legacy","green","blue","yellow","red","legacy","0","uniform","1","1","/","1","NA","NA","NA","0","NA","NA","0","NA","NA","23","0","0","0","0","23","23","0","0","23","23","23","23","23","0","0","0","0","0","0","23","23","23","23","23","23","23","23","23","23","0","23","NA","NA","0","NA","0","12/30/15 00:02:06","Default description","no","chinese-japanese-korean","no","18","white","開始實驗A","768","legacy","C:\Users\Evonne\Desktop\test\Compatibility\0_preview\quickrun.csv","xpyriment","Interactive Ising","3.0.2","NA","0","/","NA","NA","space","space","z","space","space","/","space","815","NA","NA","1613","3717","2541","2832","5102","815","3746","legacy","500","experiment","999","odd","NA","NA","NA","NA","43901","NA","NA","NA","NA","NA","235525","NA","NA","43890","NA","237252","235718","43890","NA","238253","208380","215781","230937","238257","33167","34785","38509","41056","28049","12558","238757","208386","216286","230942","238761","238762","NA","239584","185315","239685","24145","235524","NA","NA","43901","NA","10978","Hommel2002EXP01","21","21248","24","yes","1024"
"n","yes","no","rect","88","88","878","878","black","no","xpyriment","legacy","red","yellow","green","blue","legacy","0","uniform","1","1","/","1","NA","NA","NA","0","NA","NA","0","NA","NA","24","0","0","0","0","24","24","0","0","24","24","24","24","24","0","0","0","0","0","0","24","24","24","24","24","24","24","24","24","24","0","24","NA","NA","0","NA","0","12/30/15 00:02:06","Default description","no","chinese-japanese-korean","no","18","white","開始實驗A","768","legacy","C:\Users\Evonne\Desktop\test\Compatibility\0_preview\quickrun.csv","xpyriment","Interactive Ising","3.0.2","NA","0","/","NA","NA","space","space","z","space","space","/","space","716","NA","NA","1613","3717","2541","2832","5102","716","3746","legacy","1500","experiment","999","odd","NA","NA","NA","NA","43901","NA","NA","NA","NA","NA","243260","NA","NA","43890","NA","244941","243411","43890","NA","245941","208380","215781","230937","245947","33167","34785","38509","41056","28049","12558","247447","208386","216286","230942","247453","247454","NA","248177","185315","248279","24145","243259","NA","NA","43901","NA","10978","Hommel2002EXP01","22","21964","25","yes","1024"
"n","yes","no","rect","88.4615384615","88.4615384615","869","869","black","no","xpyriment","legacy","green","red","blue","yellow","legacy","0","uniform","1","1","/","1","NA","NA","NA","0","NA","NA","0","NA","NA","25","0","0","0","0","25","25","0","0","25","25","25","25","25","0","0","0","0","0","0","25","25","25","25","25","25","25","25","25","25","0","25","NA","NA","0","NA","0","12/30/15 00:02:06","Default description","no","chinese-japanese-korean","no","18","white","開始實驗A","768","legacy","C:\Users\Evonne\Desktop\test\Compatibility\0_preview\quickrun.csv","xpyriment","Interactive Ising","3.0.2","NA","0","/","NA","NA","space","space","z","space","space","/","space","653","NA","NA","1613","3717","2541","2832","5102","653","3746","legacy","500","experiment","999","odd","NA","NA","NA","NA","43901","NA","NA","NA","NA","NA","252451","NA","NA","43890","NA","254187","252650","43890","NA","255187","208380","215781","230937","255192","33167","34785","38509","41056","28049","12558","255692","208386","216286","230942","255697","255698","NA","256360","185315","256461","24145","252450","NA","NA","43901","NA","10978","Hommel2002EXP01","23","22617","26","yes","1024"
"y","yes","no","rect","88.8888888889","88.8888888889","859","859","black","no","xpyriment","legacy","red","blue","green","yellow","legacy","0","uniform","1","1","/","1","NA","NA","NA","0","NA","NA","0","NA","NA","26","0","0","0","0","26","26","0","0","26","26","26","26","26","0","0","0","0","0","0","26","26","26","26","26","26","26","26","26","26","0","26","NA","NA","0","NA","0","12/30/15 00:02:06","Default description","no","chinese-japanese-korean","no","18","white","開始實驗A","768","legacy","C:\Users\Evonne\Desktop\test\Compatibility\0_preview\quickrun.csv","xpyriment","Interactive Ising","3.0.2","NA","0","/","NA","NA","space","space","z","space","space","/","space","594","NA","NA","1613","3717","2541","2832","5102","594","3746","legacy","1500","experiment","999","odd","NA","NA","NA","NA","43901","NA","NA","NA","NA","NA","260092","NA","NA","43890","NA","261866","260327","43890","NA","262866","208380","215781","262871","255192","33167","34785","38509","41056","28049","12558","264371","208386","216286","264377","255697","264377","NA","264978","185315","265078","24145","260091","NA","NA","43901","NA","10978","Hommel2002EXP01","24","23211","27","yes","1024"
"y","yes","no","rect","89.2857142857","89.2857142857","850","850","black","no","xpyriment","legacy","blue","red","green","yellow","legacy","0","uniform","1","1","/","1","NA","NA","NA","0","NA","NA","0","NA","NA","27","0","0","0","0","27","27","0","0","27","27","27","27","27","0","0","0","0","0","0","27","27","27","27","27","27","27","27","27","27","0","27","NA","NA","0","NA","0","12/30/15 00:02:06","Default description","no","chinese-japanese-korean","no","18","white","開始實驗A","768","legacy","C:\Users\Evonne\Desktop\test\Compatibility\0_preview\quickrun.csv","xpyriment","Interactive Ising","3.0.2","NA","0","/","NA","NA","space","space","z","space","space","/","space","609","NA","NA","1613","3717","2541","2832","5102","609","3746","legacy","1000","experiment","999","odd","NA","NA","NA","NA","43901","NA","NA","NA","NA","NA","269053","NA","NA","43890","NA","270807","269273","43890","NA","271808","208380","215781","271814","255192","33167","34785","38509","41056","28049","12558","272814","208386","216286","272819","255697","272820","NA","273436","185315","273536","24145","269052","NA","NA","43901","NA","10978","Hommel2002EXP01","25","23820","28","yes","1024"
"n","yes","no","circle","86.2068965517","86.2068965517","841","841","black","no","xpyriment","legacy","yellow","red","blue","green","legacy","0","uniform","0","0","z","1","NA","NA","NA","0","NA","NA","0","NA","NA","28","0","0","0","0","28","28","0","0","28","28","28","28","28","0","0","0","0","0","0","28","28","28","28","28","28","28","28","28","28","0","28","NA","NA","0","NA","0","12/30/15 00:02:06","Default description","no","chinese-japanese-korean","no","18","white","開始實驗A","768","legacy","C:\Users\Evonne\Desktop\test\Compatibility\0_preview\quickrun.csv","xpyriment","Interactive Ising","3.0.2","NA","0","/","NA","NA","space","space","z","space","space","/","space","593","NA","NA","1613","3717","2541","2832","5102","593","3746","legacy","1500","experiment","999","odd","NA","NA","NA","NA","43901","NA","NA","NA","NA","NA","277065","NA","NA","43890","NA","278858","277314","43890","NA","279859","208380","279864","271814","255192","33167","34785","38509","41056","28049","12558","281364","208386","281369","272819","255697","281370","NA","273436","281971","282071","24145","277064","NA","NA","43901","NA","10978","Hommel2002EXP01","25","24413","29","yes","1024"
"y","yes","no","circle","86.6666666667","86.6666666667","846","846","black","no","xpyriment","legacy","green","red","yellow","blue","legacy","0","uniform","1","1","z","1","NA","NA","NA","0","NA","NA","0","NA","NA","29","0","0","0","0","29","29","0","0","29","29","29","29","29","0","0","0","0","0","0","29","29","29","29","29","29","29","29","29","29","0","29","NA","NA","0","NA","0","12/30/15 00:02:06","Default description","no","chinese-japanese-korean","no","18","white","開始實驗A","768","legacy","C:\Users\Evonne\Desktop\test\Compatibility\0_preview\quickrun.csv","xpyriment","Interactive Ising","3.0.2","NA","0","z","NA","NA","space","space","z","space","space","z","space","986","NA","NA","1613","3717","2541","2832","5102","986","3746","legacy","500","experiment","999","odd","NA","NA","NA","NA","43901","NA","NA","NA","NA","NA","287527","NA","NA","43890","NA","289308","287771","43890","NA","290308","290314","279864","271814","255192","33167","34785","38509","41056","28049","12558","290814","290819","281369","272819","255697","290820","NA","291820","281971","291921","24145","287526","NA","NA","43901","NA","10978","Hommel2002EXP01","26","25399","30","yes","1024"
"y","yes","no","circle","87.0967741935","87.0967741935","845","845","black","no","xpyriment","legacy","green","red","blue","yellow","legacy","0","uniform","1","1","z","1","NA","NA","NA","0","NA","NA","0","NA","NA","30","0","0","0","0","30","30","0","0","30","30","30","30","30","0","0","0","0","0","0","30","30","30","30","30","30","30","30","30","30","0","30","NA","NA","0","NA","0","12/30/15 00:02:06","Default description","no","chinese-japanese-korean","no","18","white","開始實驗A","768","legacy","C:\Users\Evonne\Desktop\test\Compatibility\0_preview\quickrun.csv","xpyriment","Interactive Ising","3.0.2","NA","0","z","NA","NA","space","space","z","space","space","z","space","806","NA","NA","1613","3717","2541","2832","5102","806","3746","legacy","1500","experiment","999","odd","NA","NA","NA","NA","43901","NA","NA","NA","NA","NA","295883","NA","NA","43890","NA","297565","296025","43890","NA","298566","298572","279864","271814","255192","33167","34785","38509","41056","28049","12558","300072","300077","281369","272819","255697","300078","NA","300900","281971","301000","24145","295882","NA","NA","43901","NA","10978","Hommel2002EXP01","27","26205","31","yes","1024"
"n","yes","no","circle","84.375","84.375","847","847","black","no","xpyriment","legacy","red","yellow","blue","green","legacy","0","uniform","0","0","z","1","NA","NA","NA","0","NA","NA","0","NA","NA","31","0","0","0","0","31","31","0","0","31","31","31","31","31","0","0","0","0","0","0","31","31","31","31","31","31","31","31","31","31","0","31","NA","NA","0","NA","0","12/30/15 00:02:06","Default description","no","chinese-japanese-korean","no","18","white","開始實驗A","768","legacy","C:\Users\Evonne\Desktop\test\Compatibility\0_preview\quickrun.csv","xpyriment","Interactive Ising","3.0.2","NA","0","/","NA","NA","space","space","z","space","space","/","space","901","NA","NA","1613","3717","2541","2832","5102","901","3746","legacy","500","experiment","999","odd","NA","NA","NA","NA","43901","NA","NA","NA","NA","NA","304919","NA","NA","43890","NA","306592","305055","43890","NA","307593","298572","307598","271814","255192","33167","34785","38509","41056","28049","12558","308099","300077","308105","272819","255697","308105","NA","300900","309015","309115","24145","304918","NA","NA","43901","NA","10978","Hommel2002EXP01","27","27106","32","yes","1024"
"y","yes","no","circle","100","100","898","898","black","no","xpyriment","legacy","blue","green","red","yellow","legacy","0","uniform","1","1","z","1","NA","NA","NA","1","NA","NA","1","NA","0","32","0","0","0","0","32","32","0","0","32","32","32","32","32","0","0","0","0","0","0","32","32","32","32","32","32","32","32","32","32","0","32","NA","NA","1","NA","0","12/30/15 00:02:06","Default description","no","chinese-japanese-korean","no","18","white","開始實驗A","768","legacy","C:\Users\Evonne\Desktop\test\Compatibility\0_preview\quickrun.csv","xpyriment","Interactive Ising","3.0.2","yes","0","z","NA","space","space","space","z","space","space","z","space","898","NA","4557","1613","3717","2541","2832","5102","898","3746","legacy","500","experiment","999","odd","NA","NA","NA","NA","314336","NA","NA","NA","NA","309770","317924","NA","NA","43890","NA","319614","318079","43890","NA","320615","320619","307598","271814","255192","33167","34785","38509","41056","28049","12558","321120","321125","308105","272819","255697","321125","NA","322042","309015","322143","24145","317924","NA","NA","314336","NA","10978","Hommel2002EXP01","1","898","1","yes","1024"
"n","yes","no","rect","50","50","909","909","black","no","xpyriment","legacy","green","yellow","red","blue","legacy","0","uniform","0","0","/","1","NA","NA","NA","1","NA","NA","1","NA","0","33","0","0","0","0","33","33","0","0","33","33","33","33","33","0","0","0","0","0","0","33","33","33","33","33","33","33","33","33","33","0","33","NA","NA","1","NA","0","12/30/15 00:02:06","Default description","no","chinese-japanese-korean","no","18","white","開始實驗A","768","legacy","C:\Users\Evonne\Desktop\test\Compatibility\0_preview\quickrun.csv","xpyriment","Interactive Ising","3.0.2","yes","0","z","NA","space","space","space","z","space","space","z","space","921","NA","4557","1613","3717","2541","2832","5102","921","3746","legacy","1500","experiment","999","odd","NA","NA","NA","NA","314336","NA","NA","NA","NA","309770","325661","NA","NA","43890","NA","327423","325885","43890","NA","328424","320619","307598","271814","328428","33167","34785","38509","41056","28049","12558","329928","321125","308105","272819","329932","329933","NA","322042","330862","330962","24145","325660","NA","NA","314336","NA","10978","Hommel2002EXP01","1","1819","2","yes","1024"
"n","yes","no","rect","66.6666666667","66.6666666667","932","932","black","no","xpyriment","legacy","yellow","blue","green","red","legacy","0","uniform","1","1","/","1","NA","NA","NA","1","NA","NA","1","NA","0","34","0","0","0","0","34","34","0","0","34","34","34","34","34","0","0","0","0","0","0","34","34","34","34","34","34","34","34","34","34","0","34","NA","NA","1","NA","0","12/30/15 00:02:06","Default description","no","chinese-japanese-korean","no","18","white","開始實驗A","768","legacy","C:\Users\Evonne\Desktop\test\Compatibility\0_preview\quickrun.csv","xpyriment","Interactive Ising","3.0.2","yes","0","/","NA","space","space","space","z","space","space","/","space","979","NA","4557","1613","3717","2541","2832","5102","979","3746","legacy","1000","experiment","999","odd","NA","NA","NA","NA","314336","NA","NA","NA","NA","309770","334653","NA","NA","43890","NA","336491","334958","43890","NA","337492","320619","307598","271814","337497","33167","34785","38509","41056","28049","12558","338497","321125","308105","272819","338501","338502","NA","339488","330862","339588","24145","334652","NA","NA","314336","NA","10978","Hommel2002EXP01","2","2798","3","yes","1024"
"y","yes","no","rect","75","75","894","894","black","no","xpyriment","legacy","yellow","green","blue","red","legacy","0","uniform","1","1","/","1","NA","NA","NA","1","NA","NA","1","NA","0","35","0","0","0","0","35","35","0","0","35","35","35","35","35","0","0","0","0","0","0","35","35","35","35","35","35","35","35","35","35","0","35","NA","NA","1","NA","0","12/30/15 00:02:06","Default description","no","chinese-japanese-korean","no","18","white","開始實驗A","768","legacy","C:\Users\Evonne\Desktop\test\Compatibility\0_preview\quickrun.csv","xpyriment","Interactive Ising","3.0.2","yes","0","/","NA","space","space","space","z","space","space","/","space","781","NA","4557","1613","3717","2541","2832","5102","781","3746","legacy","1500","experiment","999","odd","NA","NA","NA","NA","314336","NA","NA","NA","NA","309770","343253","NA","NA","43890","NA","345040","343504","43890","NA","346041","320619","307598","346045","337497","33167","34785","38509","41056","28049","12558","347546","321125","308105","347550","338501","347551","NA","348340","330862","348440","24145","343252","NA","NA","314336","NA","10978","Hommel2002EXP01","3","3579","4","yes","1024"
"y","yes","no","circle","80","80","887","887","black","no","xpyriment","legacy","yellow","green","blue","red","legacy","0","uniform","1","1","z","1","NA","NA","NA","1","NA","NA","1","NA","0","36","0","0","0","0","36","36","0","0","36","36","36","36","36","0","0","0","0","0","0","36","36","36","36","36","36","36","36","36","36","0","36","NA","NA","1","NA","0","12/30/15 00:02:06","Default description","no","chinese-japanese-korean","no","18","white","開始實驗A","768","legacy","C:\Users\Evonne\Desktop\test\Compatibility\0_preview\quickrun.csv","xpyriment","Interactive Ising","3.0.2","yes","0","z","NA","space","space","space","z","space","space","z","space","860","NA","4557","1613","3717","2541","2832","5102","860","3746","legacy","1000","experiment","999","odd","NA","NA","NA","NA","314336","NA","NA","NA","NA","309770","352158","NA","NA","43890","NA","353880","352344","43890","NA","354881","354886","307598","346045","337497","33167","34785","38509","41056","28049","12558","355886","355891","308105","347550","338501","355891","NA","356759","330862","356860","24145","352158","NA","NA","314336","NA","10978","Hommel2002EXP01","4","4439","5","yes","1024"
"n","yes","no","circle","83.3333333333","83.3333333333","857","857","black","no","xpyriment","legacy","green","yellow","blue","red","legacy","0","uniform","1","1","z","1","NA","NA","NA","1","NA","NA","1","NA","0","37","0","0","0","0","37","37","0","0","37","37","37","37","37","0","0","0","0","0","0","37","37","37","37","37","37","37","37","37","37","0","37","NA","NA","1","NA","0","12/30/15 00:02:06","Default description","no","chinese-japanese-korean","no","18","white","開始實驗A","768","legacy","C:\Users\Evonne\Desktop\test\Compatibility\0_preview\quickrun.csv","xpyriment","Interactive Ising","3.0.2","yes","0","z","NA","space","space","space","z","space","space","z","space","706","NA","4557","1613","3717","2541","2832","5102","706","3746","legacy","500","experiment","999","odd","NA","NA","NA","NA","314336","NA","NA","NA","NA","309770","360688","NA","NA","43890","NA","362426","360921","43890","NA","363426","354886","363430","346045","337497","33167","34785","38509","41056","28049","12558","363933","355891","363945","347550","338501","363948","NA","364661","330862","364761","24145","360687","NA","NA","314336","NA","10978","Hommel2002EXP01","5","5145","6","yes","1024"
"y","yes","no","rect","71.4285714286","71.4285714286","842","842","black","no","xpyriment","legacy","red","yellow","blue","green","legacy","0","uniform","0","0","/","1","NA","NA","NA","1","NA","NA","1","NA","0","38","0","0","0","0","38","38","0","0","38","38","38","38","38","0","0","0","0","0","0","38","38","38","38","38","38","38","38","38","38","0","38","NA","NA","1","NA","0","12/30/15 00:02:06","Default description","no","chinese-japanese-korean","no","18","white","開始實驗A","768","legacy","C:\Users\Evonne\Desktop\test\Compatibility\0_preview\quickrun.csv","xpyriment","Interactive Ising","3.0.2","yes","0","z","NA","space","space","space","z","space","space","z","space","755","NA","4557","1613","3717","2541","2832","5102","755","3746","legacy","500","experiment","999","odd","NA","NA","NA","NA","314336","NA","NA","NA","NA","309770","368561","NA","NA","43890","NA","370210","368676","43890","NA","371210","354886","363430","371214","337497","33167","34785","38509","41056","28049","12558","371715","355891","363945","371719","338501","371720","NA","364661","372483","372583","24145","368561","NA","NA","314336","NA","10978","Hommel2002EXP01","5","5900","7","yes","1024"
"n","yes","no","circle","75","75","904","904","black","no","xpyriment","legacy","yellow","blue","green","red","legacy","0","uniform","1","1","z","1","NA","NA","NA","1","NA","NA","1","NA","0","39","0","0","0","0","39","39","0","0","39","39","39","39","39","0","0","0","0","0","0","39","39","39","39","39","39","39","39","39","39","0","39","NA","NA","1","NA","0","12/30/15 00:02:06","Default description","no","chinese-japanese-korean","no","18","white","開始實驗A","768","legacy","C:\Users\Evonne\Desktop\test\Compatibility\0_preview\quickrun.csv","xpyriment","Interactive Ising","3.0.2","yes","0","z","NA","space","space","space","z","space","space","z","space","1335","NA","4557","1613","3717","2541","2832","5102","1335","3746","legacy","1500","experiment","999","odd","NA","NA","NA","NA","314336","NA","NA","NA","NA","309770","376195","NA","NA","43890","NA","377957","376424","43890","NA","378957","354886","378962","371214","337497","33167","34785","38509","41056","28049","12558","380462","355891","380466","371719","338501","380467","NA","381810","372483","381911","24145","376195","NA","NA","314336","NA","10978","Hommel2002EXP01","6","7235","8","yes","1024"
"y","yes","no","rect","77.7777777778","77.7777777778","902","902","black","no","xpyriment","legacy","green","blue","red","yellow","legacy","0","uniform","1","1","/","1","NA","NA","NA","1","NA","NA","1","NA","0","40","0","0","0","0","40","40","0","0","40","40","40","40","40","0","0","0","0","0","0","40","40","40","40","40","40","40","40","40","40","0","40","NA","NA","1","NA","0","12/30/15 00:02:06","Default description","no","chinese-japanese-korean","no","18","white","開始實驗A","768","legacy","C:\Users\Evonne\Desktop\test\Compatibility\0_preview\quickrun.csv","xpyriment","Interactive Ising","3.0.2","yes","0","/","NA","space","space","space","z","space","space","/","space","891","NA","4557","1613","3717","2541","2832","5102","891","3746","legacy","0","experiment","999","odd","NA","NA","NA","NA","314336","NA","NA","NA","NA","309770","385838","NA","NA","43890","NA","387541","386007","43890","NA","388542","354886","378962","388553","337497","33167","34785","38509","41056","28049","12558","388554","355891","380466","388563","338501","388564","NA","389464","372483","389564","24145","385838","NA","NA","314336","NA","10978","Hommel2002EXP01","7","8126","9","yes","1024"
"y","yes","no","circle","80","80","891","891","black","no","xpyriment","legacy","red","green","blue","yellow","legacy","0","uniform","1","1","z","1","NA","NA","NA","1","NA","NA","1","NA","0","41","0","0","0","0","41","41","0","0","41","41","41","41","41","0","0","0","0","0","0","41","41","41","41","41","41","41","41","41","41","0","41","NA","NA","1","NA","0","12/30/15 00:02:06","Default description","no","chinese-japanese-korean","no","18","white","開始實驗A","768","legacy","C:\Users\Evonne\Desktop\test\Compatibility\0_preview\quickrun.csv","xpyriment","Interactive Ising","3.0.2","yes","0","z","NA","space","space","space","z","space","space","z","space","792","NA","4557","1613","3717","2541","2832","5102","792","3746","legacy","1500","experiment","999","odd","NA","NA","NA","NA","314336","NA","NA","NA","NA","309770","393406","NA","NA","43890","NA","395154","393619","43890","NA","396155","396159","378962","388553","337497","33167","34785","38509","41056","28049","12558","397660","397665","380466","388563","338501","397665","NA","398464","372483","398564","24145","393406","NA","NA","314336","NA","10978","Hommel2002EXP01","8","8918","10","yes","1024"
"n","yes","no","rect","81.8181818182","81.8181818182","915","915","black","no","xpyriment","legacy","red","blue","yellow","green","legacy","0","uniform","1","1","/","1","NA","NA","NA","1","NA","NA","1","NA","0","42","0","0","0","0","42","42","0","0","42","42","42","42","42","0","0","0","0","0","0","42","42","42","42","42","42","42","42","42","42","0","42","NA","NA","1","NA","0","12/30/15 00:02:06","Default description","no","chinese-japanese-korean","no","18","white","開始實驗A","768","legacy","C:\Users\Evonne\Desktop\test\Compatibility\0_preview\quickrun.csv","xpyriment","Interactive Ising","3.0.2","yes","0","/","NA","space","space","space","z","space","space","/","space","1155","NA","4557","1613","3717","2541","2832","5102","1155","3746","legacy","0","experiment","999","odd","NA","NA","NA","NA","314336","NA","NA","NA","NA","309770","402064","NA","NA","43890","NA","403818","402282","43890","NA","404819","396159","378962","388553","404823","33167","34785","38509","41056","28049","12558","404824","397665","380466","388563","404829","404829","NA","405992","372483","406092","24145","402064","NA","NA","314336","NA","10978","Hommel2002EXP01","9","10073","11","yes","1024"
"y","yes","no","circle","83.3333333333","83.3333333333","922","922","black","no","xpyriment","legacy","blue","green","yellow","red","legacy","0","uniform","1","1","z","1","NA","NA","NA","1","NA","NA","1","NA","0","43","0","0","0","0","43","43","0","0","43","43","43","43","43","0","0","0","0","0","0","43","43","43","43","43","43","43","43","43","43","0","43","NA","NA","1","NA","0","12/30/15 00:02:06","Default description","no","chinese-japanese-korean","no","18","white","開始實驗A","768","legacy","C:\Users\Evonne\Desktop\test\Compatibility\0_preview\quickrun.csv","xpyriment","Interactive Ising","3.0.2","yes","0","z","NA","space","space","space","z","space","space","z","space","999","NA","4557","1613","3717","2541","2832","5102","999","3746","legacy","0","experiment","999","odd","NA","NA","NA","NA","314336","NA","NA","NA","NA","309770","409672","NA","NA","43890","NA","411433","409900","43890","NA","412434","412444","378962","388553","404823","33167","34785","38509","41056","28049","12558","412445","412456","380466","388563","404829","412458","NA","413465","372483","413566","24145","409671","NA","NA","314336","NA","10978","Hommel2002EXP01","10","11072","12","yes","1024"
"n","yes","no","rect","84.6153846154","84.6153846154","921","921","black","no","xpyriment","legacy","red","yellow","blue","green","legacy","0","uniform","1","1","/","1","NA","NA","NA","1","NA","NA","1","NA","0","44","0","0","0","0","44","44","0","0","44","44","44","44","44","0","0","0","0","0","0","44","44","44","44","44","44","44","44","44","44","0","44","NA","NA","1","NA","0","12/30/15 00:02:06","Default description","no","chinese-japanese-korean","no","18","white","開始實驗A","768","legacy","C:\Users\Evonne\Desktop\test\Compatibility\0_preview\quickrun.csv","xpyriment","Interactive Ising","3.0.2","yes","0","/","NA","space","space","space","z","space","space","/","space","902","NA","4557","1613","3717","2541","2832","5102","902","3746","legacy","500","experiment","999","odd","NA","NA","NA","NA","314336","NA","NA","NA","NA","309770","417140","NA","NA","43890","NA","418908","417370","43890","NA","419909","412444","378962","388553","419914","33167","34785","38509","41056","28049","12558","420414","412456","380466","388563","420418","420419","NA","421330","372483","421430","24145","417140","NA","NA","314336","NA","10978","Hommel2002EXP01","11","11974","13","yes","1024"
"y","yes","no","rect","85.7142857143","85.7142857143","909","909","black","no","xpyriment","legacy","blue","red","yellow","green","legacy","0","uniform","1","1","/","1","NA","NA","NA","1","NA","NA","1","NA","0","45","0","0","0","0","45","45","0","0","45","45","45","45","45","0","0","0","0","0","0","45","45","45","45","45","45","45","45","45","45","0","45","NA","NA","1","NA","0","12/30/15 00:02:06","Default description","no","chinese-japanese-korean","no","18","white","開始實驗A","768","legacy","C:\Users\Evonne\Desktop\test\Compatibility\0_preview\quickrun.csv","xpyriment","Interactive Ising","3.0.2","yes","0","/","NA","space","space","space","z","space","space","/","space","756","NA","4557","1613","3717","2541","2832","5102","756","3746","legacy","500","experiment","999","odd","NA","NA","NA","NA","314336","NA","NA","NA","NA","309770","425245","NA","NA","43890","NA","426970","425442","43890","NA","427971","412444","378962","427976","419914","33167","34785","38509","41056","28049","12558","428476","412456","380466","428481","420418","428481","NA","429243","372483","429344","24145","425244","NA","NA","314336","NA","10978","Hommel2002EXP01","12","12730","14","yes","1024"
"n","yes","no","rect","86.6666666667","86.6666666667","894","894","black","no","xpyriment","legacy","red","yellow","blue","green","legacy","0","uniform","1","1","/","1","NA","NA","NA","1","NA","NA","1","NA","0","46","0","0","0","0","46","46","0","0","46","46","46","46","46","0","0","0","0","0","0","46","46","46","46","46","46","46","46","46","46","0","46","NA","NA","1","NA","0","12/30/15 00:02:06","Default description","no","chinese-japanese-korean","no","18","white","開始實驗A","768","legacy","C:\Users\Evonne\Desktop\test\Compatibility\0_preview\quickrun.csv","xpyriment","Interactive Ising","3.0.2","yes","0","/","NA","space","space","space","z","space","space","/","space","682","NA","4557","1613","3717","2541","2832","5102","682","3746","legacy","500","experiment","999","odd","NA","NA","NA","NA","314336","NA","NA","NA","NA","309770","433053","NA","NA","43890","NA","434736","433202","43890","NA","435736","412444","378962","427976","435741","33167","34785","38509","41056","28049","12558","436241","412456","380466","428481","436247","436248","NA","436939","372483","437039","24145","433052","NA","NA","314336","NA","10978","Hommel2002EXP01","13","13412","15","yes","1024"
"n","yes","no","circle","87.5","87.5","896","896","black","no","xpyriment","legacy","green","yellow","red","blue","legacy","0","uniform","1","1","z","1","NA","NA","NA","1","NA","NA","1","NA","0","47","0","0","0","0","47","47","0","0","47","47","47","47","47","0","0","0","0","0","0","47","47","47","47","47","47","47","47","47","47","0","47","NA","NA","1","NA","0","12/30/15 00:02:06","Default description","no","chinese-japanese-korean","no","18","white","開始實驗A","768","legacy","C:\Users\Evonne\Desktop\test\Compatibility\0_preview\quickrun.csv","xpyriment","Interactive Ising","3.0.2","yes","0","z","NA","space","space","space","z","space","space","z","space","928","NA","4557","1613","3717","2541","2832","5102","928","3746","legacy","0","experiment","999","odd","NA","NA","NA","NA","314336","NA","NA","NA","NA","309770","440762","NA","NA","43890","NA","442473","440949","43890","NA","443474","412444","443479","427976","435741","33167","34785","38509","41056","28049","12558","443480","412456","443485","428481","436247","443486","NA","444422","372483","444522","24145","440761","NA","NA","314336","NA","10978","Hommel2002EXP01","14","14340","16","yes","1024"
"y","yes","no","circle","88.2352941176","88.2352941176","882","882","black","no","xpyriment","legacy","red","blue","green","yellow","legacy","0","uniform","1","1","z","1","NA","NA","NA","1","NA","NA","1","NA","0","48","0","0","0","0","48","48","0","0","48","48","48","48","48","0","0","0","0","0","0","48","48","48","48","48","48","48","48","48","48","0","48","NA","NA","1","NA","0","12/30/15 00:02:06","Default description","no","chinese-japanese-korean","no","18","white","開始實驗A","768","legacy","C:\Users\Evonne\Desktop\test\Compatibility\0_preview\quickrun.csv","xpyriment","Interactive Ising","3.0.2","yes","0","z","NA","space","space","space","z","space","space","z","space","661","NA","4557","1613","3717","2541","2832","5102","661","3746","legacy","1500","experiment","999","odd","NA","NA","NA","NA","314336","NA","NA","NA","NA","309770","448421","NA","NA","43890","NA","450231","448694","43890","NA","451232","451237","443479","427976","435741","33167","34785","38509","41056","28049","12558","452738","452743","443485","428481","436247","452744","NA","453412","372483","453512","24145","448420","NA","NA","314336","NA","10978","Hommel2002EXP01","15","15001","17","yes","1024"
"n","yes","no","rect","88.8888888889","88.8888888889","876","876","black","no","xpyriment","legacy","green","yellow","red","blue","legacy","0","uniform","1","1","/","1","NA","NA","NA","1","NA","NA","1","NA","0","49","0","0","0","0","49","49","0","0","49","49","49","49","49","0","0","0","0","0","0","49","49","49","49","49","49","49","49","49","49","0","49","NA","NA","1","NA","0","12/30/15 00:02:06","Default description","no","chinese-japanese-korean","no","18","white","開始實驗A","768","legacy","C:\Users\Evonne\Desktop\test\Compatibility\0_preview\quickrun.csv","xpyriment","Interactive Ising","3.0.2","yes","0","/","NA","space","space","space","z","space","space","/","space","770","NA","4557","1613","3717","2541","2832","5102","770","3746","legacy","1500","experiment","999","odd","NA","NA","NA","NA","314336","NA","NA","NA","NA","309770","457146","NA","NA","43890","NA","458919","457372","43890","NA","459920","451237","443479","427976","459933","33167","34785","38509","41056","28049","12558","461434","452743","443485","428481","461440","461441","NA","462228","372483","462329","24145","457145","NA","NA","314336","NA","10978","Hommel2002EXP01","16","15771","18","yes","1024"
"y","yes","no","rect","89.4736842105","89.4736842105","865","865","black","no","xpyriment","legacy","yellow","red","blue","green","legacy","0","uniform","1","1","/","1","NA","NA","NA","1","NA","NA","1","NA","0","50","0","0","0","0","50","50","0","0","50","50","50","50","50","0","0","0","0","0","0","50","50","50","50","50","50","50","50","50","50","0","50","NA","NA","1","NA","0","12/30/15 00:02:06","Default description","no","chinese-japanese-korean","no","18","white","開始實驗A","768","legacy","C:\Users\Evonne\Desktop\test\Compatibility\0_preview\quickrun.csv","xpyriment","Interactive Ising","3.0.2","yes","0","/","NA","space","space","space","z","space","space","/","space","678","NA","4557","1613","3717","2541","2832","5102","678","3746","legacy","1000","experiment","999","odd","NA","NA","NA","NA","314336","NA","NA","NA","NA","309770","466178","NA","NA","43890","NA","467951","466411","43890","NA","468952","451237","443479","468957","459933","33167","34785","38509","41056","28049","12558","469958","452743","443485","469964","461440","469965","NA","470651","372483","470751","24145","466177","NA","NA","314336","NA","10978","Hommel2002EXP01","17","16449","19","yes","1024"
"n","yes","no","circle","90","90","867","867","black","no","xpyriment","legacy","red","blue","yellow","green","legacy","0","uniform","1","1","z","1","NA","NA","NA","1","NA","NA","1","NA","0","51","0","0","0","0","51","51","0","0","51","51","51","51","51","0","0","0","0","0","0","51","51","51","51","51","51","51","51","51","51","0","51","NA","NA","1","NA","0","12/30/15 00:02:06","Default description","no","chinese-japanese-korean","no","18","white","開始實驗A","768","legacy","C:\Users\Evonne\Desktop\test\Compatibility\0_preview\quickrun.csv","xpyriment","Interactive Ising","3.0.2","yes","0","z","NA","space","space","space","z","space","space","z","space","896","NA","4557","1613","3717","2541","2832","5102","896","3746","legacy","1000","experiment","999","odd","NA","NA","NA","NA","314336","NA","NA","NA","NA","309770","474389","NA","NA","43890","NA","476127","474580","43890","NA","477128","451237","477133","468957","459933","33167","34785","38509","41056","28049","12558","478133","452743","478138","469964","461440","478139","NA","479042","372483","479142","24145","474388","NA","NA","314336","NA","10978","Hommel2002EXP01","18","17345","20","yes","1024"
"n","yes","no","rect","90.4761904762","90.4761904762","861","861","black","no","xpyriment","legacy","yellow","blue","green","red","legacy","0","uniform","1","1","/","1","NA","NA","NA","1","NA","NA","1","NA","0","52","0","0","0","0","52","52","0","0","52","52","52","52","52","0","0","0","0","0","0","52","52","52","52","52","52","52","52","52","52","0","52","NA","NA","1","NA","0","12/30/15 00:02:06","Default description","no","chinese-japanese-korean","no","18","white","開始實驗A","768","legacy","C:\Users\Evonne\Desktop\test\Compatibility\0_preview\quickrun.csv","xpyriment","Interactive Ising","3.0.2","yes","0","/","NA","space","space","space","z","space","space","/","space","752","NA","4557","1613","3717","2541","2832","5102","752","3746","legacy","1000","experiment","999","odd","NA","NA","NA","NA","314336","NA","NA","NA","NA","309770","482753","NA","NA","43890","NA","484422","482886","43890","NA","485423","451237","477133","468957","485427","33167","34785","38509","41056","28049","12558","486427","452743","478138","469964","486432","486432","NA","487191","372483","487291","24145","482752","NA","NA","314336","NA","10978","Hommel2002EXP01","19","18097","21","yes","1024"
"n","yes","no","circle","90.9090909091","90.9090909091","862","862","black","no","xpyriment","legacy","blue","red","green","yellow","legacy","0","uniform","1","1","z","1","NA","NA","NA","1","NA","NA","1","NA","0","53","0","0","0","0","53","53","0","0","53","53","53","53","53","0","0","0","0","0","0","53","53","53","53","53","53","53","53","53","53","0","53","NA","NA","1","NA","0","12/30/15 00:02:06","Default description","no","chinese-japanese-korean","no","18","white","開始實驗A","768","legacy","C:\Users\Evonne\Desktop\test\Compatibility\0_preview\quickrun.csv","xpyriment","Interactive Ising","3.0.2","yes","0","z","NA","space","space","space","z","space","space","z","space","874","NA","4557","1613","3717","2541","2832","5102","874","3746","legacy","500","experiment","999","odd","NA","NA","NA","NA","314336","NA","NA","NA","NA","309770","490885","NA","NA","43890","NA","492574","491038","43890","NA","493575","451237","493585","468957","485427","33167","34785","38509","41056","28049","12558","494086","452743","494091","469964","486432","494092","NA","494974","372483","495075","24145","490884","NA","NA","314336","NA","10978","Hommel2002EXP01","20","18971","22","yes","1024"
"n","yes","no","circle","86.9565217391","86.9565217391","857","857","black","no","xpyriment","legacy","blue","yellow","red","green","legacy","0","uniform","0","0","z","1","NA","NA","NA","1","NA","NA","1","NA","0","54","0","0","0","0","54","54","0","0","54","54","54","54","54","0","0","0","0","0","0","54","54","54","54","54","54","54","54","54","54","0","54","NA","NA","1","NA","0","12/30/15 00:02:06","Default description","no","chinese-japanese-korean","no","18","white","開始實驗A","768","legacy","C:\Users\Evonne\Desktop\test\Compatibility\0_preview\quickrun.csv","xpyriment","Interactive Ising","3.0.2","yes","0","/","NA","space","space","space","z","space","space","/","space","741","NA","4557","1613","3717","2541","2832","5102","741","3746","legacy","1000","experiment","999","odd","NA","NA","NA","NA","314336","NA","NA","NA","NA","309770","498713","NA","NA","43890","NA","500370","498840","43890","NA","501370","451237","501374","468957","485427","33167","34785","38509","41056","28049","12558","502374","452743","502378","469964","486432","502379","NA","494974","503127","503227","24145","498713","NA","NA","314336","NA","10978","Hommel2002EXP01","20","19712","23","yes","1024"
"y","yes","no","circle","87.5","87.5","855","855","black","no","xpyriment","legacy","yellow","green","blue","red","legacy","0","uniform","1","1","z","1","NA","NA","NA","1","NA","NA","1","NA","0","55","0","0","0","0","55","55","0","0","55","55","55","55","55","0","0","0","0","0","0","55","55","55","55","55","55","55","55","55","55","0","55","NA","NA","1","NA","0","12/30/15 00:02:06","Default description","no","chinese-japanese-korean","no","18","white","開始實驗A","768","legacy","C:\Users\Evonne\Desktop\test\Compatibility\0_preview\quickrun.csv","xpyriment","Interactive Ising","3.0.2","yes","0","z","NA","space","space","space","z","space","space","z","space","809","NA","4557","1613","3717","2541","2832","5102","809","3746","legacy","500","experiment","999","odd","NA","NA","NA","NA","314336","NA","NA","NA","NA","309770","507003","NA","NA","43890","NA","508709","507171","43890","NA","509710","509723","501374","468957","485427","33167","34785","38509","41056","28049","12558","510224","510228","502378","469964","486432","510229","NA","511054","503127","511155","24145","507002","NA","NA","314336","NA","10978","Hommel2002EXP01","21","20521","24","yes","1024"
"y","yes","no","circle","88","88","853","853","black","no","xpyriment","legacy","red","yellow","green","blue","legacy","0","uniform","1","1","z","1","NA","NA","NA","1","NA","NA","1","NA","0","56","0","0","0","0","56","56","0","0","56","56","56","56","56","0","0","0","0","0","0","56","56","56","56","56","56","56","56","56","56","0","56","NA","NA","1","NA","0","12/30/15 00:02:06","Default description","no","chinese-japanese-korean","no","18","white","開始實驗A","768","legacy","C:\Users\Evonne\Desktop\test\Compatibility\0_preview\quickrun.csv","xpyriment","Interactive Ising","3.0.2","yes","0","z","NA","space","space","space","z","space","space","z","space","818","NA","4557","1613","3717","2541","2832","5102","818","3746","legacy","1000","experiment","999","odd","NA","NA","NA","NA","314336","NA","NA","NA","NA","309770","514961","NA","NA","43890","NA","516696","515166","43890","NA","517697","517702","501374","468957","485427","33167","34785","38509","41056","28049","12558","518703","518708","502378","469964","486432","518709","NA","519535","503127","519635","24145","514960","NA","NA","314336","NA","10978","Hommel2002EXP01","22","21339","25","yes","1024"
"n","yes","no","rect","88.4615384615","88.4615384615","859","859","black","no","xpyriment","legacy","green","blue","red","yellow","legacy","0","uniform","1","1","/","1","NA","NA","NA","1","NA","NA","1","NA","0","57","0","0","0","0","57","57","0","0","57","57","57","57","57","0","0","0","0","0","0","57","57","57","57","57","57","57","57","57","57","0","57","NA","NA","1","NA","0","12/30/15 00:02:06","Default description","no","chinese-japanese-korean","no","18","white","開始實驗A","768","legacy","C:\Users\Evonne\Desktop\test\Compatibility\0_preview\quickrun.csv","xpyriment","Interactive Ising","3.0.2","yes","0","/","NA","space","space","space","z","space","space","/","space","1017","NA","4557","1613","3717","2541","2832","5102","1017","3746","legacy","0","experiment","999","odd","NA","NA","NA","NA","314336","NA","NA","NA","NA","309770","523457","NA","NA","43890","NA","525230","523696","43890","NA","526230","517702","501374","468957","526235","33167","34785","38509","41056","28049","12558","526236","518708","502378","469964","526241","526242","NA","527275","503127","527375","24145","523456","NA","NA","314336","NA","10978","Hommel2002EXP01","23","22356","26","yes","1024"
"y","yes","no","rect","88.8888888889","88.8888888889","855","855","black","no","xpyriment","legacy","blue","red","green","yellow","legacy","0","uniform","1","1","/","1","NA","NA","NA","1","NA","NA","1","NA","0","58","0","0","0","0","58","58","0","0","58","58","58","58","58","0","0","0","0","0","0","58","58","58","58","58","58","58","58","58","58","0","58","NA","NA","1","NA","0","12/30/15 00:02:06","Default description","no","chinese-japanese-korean","no","18","white","開始實驗A","768","legacy","C:\Users\Evonne\Desktop\test\Compatibility\0_preview\quickrun.csv","xpyriment","Interactive Ising","3.0.2","yes","0","/","NA","space","space","space","z","space","space","/","space","734","NA","4557","1613","3717","2541","2832","5102","734","3746","legacy","0","experiment","999","odd","NA","NA","NA","NA","314336","NA","NA","NA","NA","309770","530984","NA","NA","43890","NA","532751","531216","43890","NA","533752","517702","501374","533756","526235","33167","34785","38509","41056","28049","12558","533757","518708","502378","533761","526241","533762","NA","534503","503127","534604","24145","530983","NA","NA","314336","NA","10978","Hommel2002EXP01","24","23090","27","yes","1024"
"n","yes","no","circle","89.2857142857","89.2857142857","851","851","black","no","xpyriment","legacy","red","blue","yellow","green","legacy","0","uniform","1","1","z","1","NA","NA","NA","1","NA","NA","1","NA","0","59","0","0","0","0","59","59","0","0","59","59","59","59","59","0","0","0","0","0","0","59","59","59","59","59","59","59","59","59","59","0","59","NA","NA","1","NA","0","12/30/15 00:02:06","Default description","no","chinese-japanese-korean","no","18","white","開始實驗A","768","legacy","C:\Users\Evonne\Desktop\test\Compatibility\0_preview\quickrun.csv","xpyriment","Interactive Ising","3.0.2","yes","0","z","NA","space","space","space","z","space","space","z","space","745","NA","4557","1613","3717","2541","2832","5102","745","3746","legacy","0","experiment","999","odd","NA","NA","NA","NA","314336","NA","NA","NA","NA","309770","538171","NA","NA","43890","NA","539931","538399","43890","NA","540931","517702","540935","533756","526235","33167","34785","38509","41056","28049","12558","540936","518708","540940","533761","526241","540942","NA","541694","503127","541794","24145","538170","NA","NA","314336","NA","10978","Hommel2002EXP01","25","23835","28","yes","1024"
"y","yes","no","circle","89.6551724138","89.6551724138","851","851","black","no","xpyriment","legacy","blue","yellow","green","red","legacy","0","uniform","1","1","z","1","NA","NA","NA","1","NA","NA","1","NA","0","60","0","0","0","0","60","60","0","0","60","60","60","60","60","0","0","0","0","0","0","60","60","60","60","60","60","60","60","60","60","0","60","NA","NA","1","NA","0","12/30/15 00:02:06","Default description","no","chinese-japanese-korean","no","18","white","開始實驗A","768","legacy","C:\Users\Evonne\Desktop\test\Compatibility\0_preview\quickrun.csv","xpyriment","Interactive Ising","3.0.2","yes","0","z","NA","space","space","space","z","space","space","z","space","853","NA","4557","1613","3717","2541","2832","5102","853","3746","legacy","0","experiment","999","odd","NA","NA","NA","NA","314336","NA","NA","NA","NA","309770","545406","NA","NA","43890","NA","547207","545664","43890","NA","548207","548218","540935","533756","526235","33167","34785","38509","41056","28049","12558","548220","548229","540940","533761","526241","548231","NA","549091","503127","549191","24145","545405","NA","NA","314336","NA","10978","Hommel2002EXP01","26","24688","29","yes","1024"
"y","yes","no","rect","90","90","848","848","black","no","xpyriment","legacy","green","yellow","blue","red","legacy","0","uniform","1","1","/","1","NA","NA","NA","1","NA","NA","1","NA","0","61","0","0","0","0","61","61","0","0","61","61","61","61","61","0","0","0","0","0","0","61","61","61","61","61","61","61","61","61","61","0","61","NA","NA","1","NA","0","12/30/15 00:02:06","Default description","no","chinese-japanese-korean","no","18","white","開始實驗A","768","legacy","C:\Users\Evonne\Desktop\test\Compatibility\0_preview\quickrun.csv","xpyriment","Interactive Ising","3.0.2","yes","0","/","NA","space","space","space","z","space","space","/","space","759","NA","4557","1613","3717","2541","2832","5102","759","3746","legacy","1500","experiment","999","odd","NA","NA","NA","NA","314336","NA","NA","NA","NA","309770","553943","NA","NA","43890","NA","555736","554170","43890","NA","556736","548218","540935","556741","526235","33167","34785","38509","41056","28049","12558","558242","548229","540940","558248","526241","558249","NA","559017","503127","559118","24145","553943","NA","NA","314336","NA","10978","Hommel2002EXP01","27","25447","30","yes","1024"
"n","yes","no","circle","87.0967741935","87.0967741935","846","846","black","no","xpyriment","legacy","blue","green","yellow","red","legacy","0","uniform","0","0","z","1","NA","NA","NA","1","NA","NA","1","NA","0","62","0","0","0","0","62","62","0","0","62","62","62","62","62","0","0","0","0","0","0","62","62","62","62","62","62","62","62","62","62","0","62","NA","NA","1","NA","0","12/30/15 00:02:06","Default description","no","chinese-japanese-korean","no","18","white","開始實驗A","768","legacy","C:\Users\Evonne\Desktop\test\Compatibility\0_preview\quickrun.csv","xpyriment","Interactive Ising","3.0.2","yes","0","/","NA","space","space","space","z","space","space","/","space","791","NA","4557","1613","3717","2541","2832","5102","791","3746","legacy","1500","experiment","999","odd","NA","NA","NA","NA","314336","NA","NA","NA","NA","309770","562811","NA","NA","43890","NA","564521","562984","43890","NA","565521","548218","565526","556741","526235","33167","34785","38509","41056","28049","12558","567027","548229","567032","558248","526241","567033","NA","559017","567837","567938","24145","562810","NA","NA","314336","NA","10978","Hommel2002EXP01","27","26238","31","yes","1024"
"y","yes","no","rect","87.5","87.5","841","841","black","no","xpyriment","legacy","blue","green","yellow","red","legacy","0","uniform","1","1","/","1","NA","NA","NA","1","NA","NA","1","NA","0","63","0","0","0","0","63","63","0","0","63","63","63","63","63","0","0","0","0","0","0","63","63","63","63","63","63","63","63","63","63","0","63","NA","NA","1","NA","0","12/30/15 00:02:06","Default description","no","chinese-japanese-korean","no","18","white","開始實驗A","768","legacy","C:\Users\Evonne\Desktop\test\Compatibility\0_preview\quickrun.csv","xpyriment","Interactive Ising","3.0.2","yes","0","/","NA","space","space","space","z","space","space","/","space","697","NA","4557","1613","3717","2541","2832","5102","697","3746","legacy","1000","experiment","999","odd","NA","NA","NA","NA","314336","NA","NA","NA","NA","309770","571652","NA","NA","43890","NA","573355","571818","43890","NA","574355","548218","565526","574360","526235","33167","34785","38509","41056","28049","12558","575361","548229","567032","575367","526241","575368","NA","576072","567837","576173","24145","571651","NA","NA","314336","NA","10978","Hommel2002EXP01","28","26935","32","yes","1024"
"n","yes","no","rect","100","100","858","858","black","no","xpyriment","legacy","blue","green","yellow","red","legacy","0","uniform","1","1","/","1","0","NA","NA","1","0","NA","1","NA","1","64","0","0","0","0","64","64","0","0","64","64","64","64","64","0","0","0","0","0","0","64","64","64","64","64","64","64","64","64","64","0","64","0","NA","1","NA","0","12/30/15 00:02:06","Default description","no","chinese-japanese-korean","no","18","white","開始實驗A","768","legacy","C:\Users\Evonne\Desktop\test\Compatibility\0_preview\quickrun.csv","xpyriment","Interactive Ising","3.0.2","yes","0","/","space","space","space","space","z","space","space","/","space","858","29078","3129","1613","3717","2541","2832","5102","858","3746","legacy","500","experiment","999","odd","579898","609016","NA","NA","314336","NA","NA","NA","NA","576704","612697","608982","NA","43890","NA","614375","612840","43890","NA","615376","548218","565526","574360","615381","33167","34785","38509","41056","28049","12558","615881","548229","567032","575367","615886","615887","NA","616754","567837","616854","24145","612695","609017","NA","314336","NA","10978","Hommel2002EXP01","1","858","1","yes","1024"
"n","yes","no","circle","100","100","783","783","black","no","xpyriment","legacy","yellow","blue","red","green","legacy","0","uniform","1","1","z","1","0","NA","NA","1","0","NA","1","NA","1","65","0","0","0","0","65","65","0","0","65","65","65","65","65","0","0","0","0","0","0","65","65","65","65","65","65","65","65","65","65","0","65","0","NA","1","NA","0","12/30/15 00:02:06","Default description","no","chinese-japanese-korean","no","18","white","開始實驗A","768","legacy","C:\Users\Evonne\Desktop\test\Compatibility\0_preview\quickrun.csv","xpyriment","Interactive Ising","3.0.2","yes","0","z","space","space","space","space","z","space","space","z","space","708","29078","3129","1613","3717","2541","2832","5102","708","3746","legacy","500","experiment","999","odd","579898","609016","NA","NA","314336","NA","NA","NA","NA","576704","620599","608982","NA","43890","NA","622279","620746","43890","NA","623279","548218","623283","574360","615381","33167","34785","38509","41056","28049","12558","623784","548229","623789","575367","615886","623789","NA","624505","567837","624606","24145","620598","609017","NA","314336","NA","10978","Hommel2002EXP01","2","1566","2","yes","1024"
"y","yes","no","circle","100","100","790","790","black","no","xpyriment","legacy","blue","green","red","yellow","legacy","0","uniform","1","1","z","1","0","NA","NA","1","0","NA","1","NA","1","66","0","0","0","0","66","66","0","0","66","66","66","66","66","0","0","0","0","0","0","66","66","66","66","66","66","66","66","66","66","0","66","0","NA","1","NA","0","12/30/15 00:02:06","Default description","no","chinese-japanese-korean","no","18","white","開始實驗A","768","legacy","C:\Users\Evonne\Desktop\test\Compatibility\0_preview\quickrun.csv","xpyriment","Interactive Ising","3.0.2","yes","0","z","space","space","space","space","z","space","space","z","space","804","29078","3129","1613","3717","2541","2832","5102","804","3746","legacy","0","experiment","999","odd","579898","609016","NA","NA","314336","NA","NA","NA","NA","576704","628167","608982","NA","43890","NA","629827","628289","43890","NA","630828","630833","623283","574360","615381","33167","34785","38509","41056","28049","12558","630834","630838","623789","575367","615886","630838","NA","631650","567837","631750","24145","628167","609017","NA","314336","NA","10978","Hommel2002EXP01","3","2370","3","yes","1024"
"y","yes","no","rect","100","100","805","805","black","no","xpyriment","legacy","blue","red","green","yellow","legacy","0","uniform","1","1","/","1","0","NA","NA","1","0","NA","1","NA","1","67","0","0","0","0","67","67","0","0","67","67","67","67","67","0","0","0","0","0","0","67","67","67","67","67","67","67","67","67","67","0","67","0","NA","1","NA","0","12/30/15 00:02:06","Default description","no","chinese-japanese-korean","no","18","white","開始實驗A","768","legacy","C:\Users\Evonne\Desktop\test\Compatibility\0_preview\quickrun.csv","xpyriment","Interactive Ising","3.0.2","yes","0","/","space","space","space","space","z","space","space","/","space","853","29078","3129","1613","3717","2541","2832","5102","853","3746","legacy","0","experiment","999","odd","579898","609016","NA","NA","314336","NA","NA","NA","NA","576704","635278","608982","NA","43890","NA","636963","635434","43890","NA","637964","630833","623283","637968","615381","33167","34785","38509","41056","28049","12558","637969","630838","623789","637974","615886","637974","NA","638835","567837","638936","24145","635278","609017","NA","314336","NA","10978","Hommel2002EXP01","4","3223","4","yes","1024"
"y","yes","no","circle","100","100","819","819","black","no","xpyriment","legacy","yellow","red","green","blue","legacy","0","uniform","1","1","z","1","0","NA","NA","1","0","NA","1","NA","1","68","0","0","0","0","68","68","0","0","68","68","68","68","68","0","0","0","0","0","0","68","68","68","68","68","68","68","68","68","68","0","68","0","NA","1","NA","0","12/30/15 00:02:06","Default description","no","chinese-japanese-korean","no","18","white","開始實驗A","768","legacy","C:\Users\Evonne\Desktop\test\Compatibility\0_preview\quickrun.csv","xpyriment","Interactive Ising","3.0.2","yes","0","z","space","space","space","space","z","space","space","z","space","873","29078","3129","1613","3717","2541","2832","5102","873","3746","legacy","1500","experiment","999","odd","579898","609016","NA","NA","314336","NA","NA","NA","NA","576704","642490","608982","NA","43890","NA","644167","642631","43890","NA","645167","645171","623283","637968","615381","33167","34785","38509","41056","28049","12558","646672","646677","623789","637974","615886","646678","NA","647564","567837","647665","24145","642489","609017","NA","314336","NA","10978","Hommel2002EXP01","5","4096","5","yes","1024"
"n","yes","no","rect","83.3333333333","83.3333333333","836","836","black","no","xpyriment","legacy","green","blue","yellow","red","legacy","0","uniform","0","0","/","1","0","NA","NA","1","0","NA","1","NA","1","69","0","0","0","0","69","69","0","0","69","69","69","69","69","0","0","0","0","0","0","69","69","69","69","69","69","69","69","69","69","0","69","0","NA","1","NA","0","12/30/15 00:02:06","Default description","no","chinese-japanese-korean","no","18","white","開始實驗A","768","legacy","C:\Users\Evonne\Desktop\test\Compatibility\0_preview\quickrun.csv","xpyriment","Interactive Ising","3.0.2","yes","0","z","space","space","space","space","z","space","space","z","space","921","29078","3129","1613","3717","2541","2832","5102","921","3746","legacy","1500","experiment","999","odd","579898","609016","NA","NA","314336","NA","NA","NA","NA","576704","651446","608982","NA","43890","NA","653243","651739","43890","NA","654243","645171","623283","637968","654249","33167","34785","38509","41056","28049","12558","655750","646677","623789","637974","655755","655755","NA","647564","656682","656783","24145","651445","609017","NA","314336","NA","10978","Hommel2002EXP01","5","5017","6","yes","1024"
"n","yes","no","circle","85.7142857143","85.7142857143","836","836","black","no","xpyriment","legacy","blue","green","red","yellow","legacy","0","uniform","1","1","z","1","0","NA","NA","1","0","NA","1","NA","1","70","0","0","0","0","70","70","0","0","70","70","70","70","70","0","0","0","0","0","0","70","70","70","70","70","70","70","70","70","70","0","70","0","NA","1","NA","0","12/30/15 00:02:06","Default description","no","chinese-japanese-korean","no","18","white","開始實驗A","768","legacy","C:\Users\Evonne\Desktop\test\Compatibility\0_preview\quickrun.csv","xpyriment","Interactive Ising","3.0.2","yes","0","z","space","space","space","space","z","space","space","z","space","837","29078","3129","1613","3717","2541","2832","5102","837","3746","legacy","1000","experiment","999","odd","579898","609016","NA","NA","314336","NA","NA","NA","NA","576704","660591","608982","NA","43890","NA","662357","660825","43890","NA","663358","645171","663362","637968","654249","33167","34785","38509","41056","28049","12558","664363","646677","664367","637974","655755","664368","NA","665211","656682","665312","24145","660590","609017","NA","314336","NA","10978","Hommel2002EXP01","6","5854","7","yes","1024"
"y","yes","no","circle","87.5","87.5","828","828","black","no","xpyriment","legacy","yellow","blue","red","green","legacy","0","uniform","1","1","z","1","0","NA","NA","1","0","NA","1","NA","1","71","0","0","0","0","71","71","0","0","71","71","71","71","71","0","0","0","0","0","0","71","71","71","71","71","71","71","71","71","71","0","71","0","NA","1","NA","0","12/30/15 00:02:06","Default description","no","chinese-japanese-korean","no","18","white","開始實驗A","768","legacy","C:\Users\Evonne\Desktop\test\Compatibility\0_preview\quickrun.csv","xpyriment","Interactive Ising","3.0.2","yes","0","z","space","space","space","space","z","space","space","z","space","773","29078","3129","1613","3717","2541","2832","5102","773","3746","legacy","1500","experiment","999","odd","579898","609016","NA","NA","314336","NA","NA","NA","NA","576704","668815","608982","NA","43890","NA","670485","668948","43890","NA","671485","671490","663362","637968","654249","33167","34785","38509","41056","28049","12558","672990","672996","664367","637974","655755","672997","NA","673779","656682","673879","24145","668815","609017","NA","314336","NA","10978","Hommel2002EXP01","7","6627","8","yes","1024"
"y","yes","no","circle","88.8888888889","88.8888888889","845","845","black","no","xpyriment","legacy","green","yellow","blue","red","legacy","0","uniform","1","1","z","1","0","NA","NA","1","0","NA","1","NA","1","72","0","0","0","0","72","72","0","0","72","72","72","72","72","0","0","0","0","0","0","72","72","72","72","72","72","72","72","72","72","0","72","0","NA","1","NA","0","12/30/15 00:02:06","Default description","no","chinese-japanese-korean","no","18","white","開始實驗A","768","legacy","C:\Users\Evonne\Desktop\test\Compatibility\0_preview\quickrun.csv","xpyriment","Interactive Ising","3.0.2","yes","0","z","space","space","space","space","z","space","space","z","space","984","29078","3129","1613","3717","2541","2832","5102","984","3746","legacy","0","experiment","999","odd","579898","609016","NA","NA","314336","NA","NA","NA","NA","576704","677767","608982","NA","43890","NA","679463","677935","43890","NA","680464","680469","663362","637968","654249","33167","34785","38509","41056","28049","12558","680470","680476","664367","637974","655755","680476","NA","681467","656682","681568","24145","677766","609017","NA","314336","NA","10978","Hommel2002EXP01","8","7611","9","yes","1024"
"y","yes","no","circle","90","90","829","829","black","no","xpyriment","legacy","red","yellow","green","blue","legacy","0","uniform","1","1","z","1","0","NA","NA","1","0","NA","1","NA","1","73","0","0","0","0","73","73","0","0","73","73","73","73","73","0","0","0","0","0","0","73","73","73","73","73","73","73","73","73","73","0","73","0","NA","1","NA","0","12/30/15 00:02:06","Default description","no","chinese-japanese-korean","no","18","white","開始實驗A","768","legacy","C:\Users\Evonne\Desktop\test\Compatibility\0_preview\quickrun.csv","xpyriment","Interactive Ising","3.0.2","yes","0","z","space","space","space","space","z","space","space","z","space","687","29078","3129","1613","3717","2541","2832","5102","687","3746","legacy","500","experiment","999","odd","579898","609016","NA","NA","314336","NA","NA","NA","NA","576704","685659","608982","NA","43890","NA","687377","685841","43890","NA","688378","688383","663362","637968","654249","33167","34785","38509","41056","28049","12558","688884","688889","664367","637974","655755","688889","NA","689584","656682","689684","24145","685658","609017","NA","314336","NA","10978","Hommel2002EXP01","9","8298","10","yes","1024"
"y","yes","no","rect","90.9090909091","90.9090909091","827","827","black","no","xpyriment","legacy","yellow","green","blue","red","legacy","0","uniform","1","1","/","1","0","NA","NA","1","0","NA","1","NA","1","74","0","0","0","0","74","74","0","0","74","74","74","74","74","0","0","0","0","0","0","74","74","74","74","74","74","74","74","74","74","0","74","0","NA","1","NA","0","12/30/15 00:02:06","Default description","no","chinese-japanese-korean","no","18","white","開始實驗A","768","legacy","C:\Users\Evonne\Desktop\test\Compatibility\0_preview\quickrun.csv","xpyriment","Interactive Ising","3.0.2","yes","0","/","space","space","space","space","z","space","space","/","space","800","29078","3129","1613","3717","2541","2832","5102","800","3746","legacy","1000","experiment","999","odd","579898","609016","NA","NA","314336","NA","NA","NA","NA","576704","693576","608982","NA","43890","NA","695321","693787","43890","NA","696321","688383","663362","696325","654249","33167","34785","38509","41056","28049","12558","697326","688889","664367","697331","655755","697331","NA","698148","656682","698249","24145","693575","609017","NA","314336","NA","10978","Hommel2002EXP01","10","9098","11","yes","1024"
"n","yes","no","rect","91.6666666667","91.6666666667","843","843","black","no","xpyriment","legacy","yellow","red","blue","green","legacy","0","uniform","1","1","/","1","0","NA","NA","1","0","NA","1","NA","1","75","0","0","0","0","75","75","0","0","75","75","75","75","75","0","0","0","0","0","0","75","75","75","75","75","75","75","75","75","75","0","75","0","NA","1","NA","0","12/30/15 00:02:06","Default description","no","chinese-japanese-korean","no","18","white","開始實驗A","768","legacy","C:\Users\Evonne\Desktop\test\Compatibility\0_preview\quickrun.csv","xpyriment","Interactive Ising","3.0.2","yes","0","/","space","space","space","space","z","space","space","/","space","1019","29078","3129","1613","3717","2541","2832","5102","1019","3746","legacy","0","experiment","999","odd","579898","609016","NA","NA","314336","NA","NA","NA","NA","576704","702077","608982","NA","43890","NA","703844","702311","43890","NA","704845","688383","663362","696325","704850","33167","34785","38509","41056","28049","12558","704851","688889","664367","697331","704856","704857","NA","705883","656682","705983","24145","702076","609017","NA","314336","NA","10978","Hommel2002EXP01","11","10117","12","yes","1024"
"n","yes","no","rect","92.3076923077","92.3076923077","840","840","black","no","xpyriment","legacy","yellow","green","blue","red","legacy","0","uniform","1","1","/","1","0","NA","NA","1","0","NA","1","NA","1","76","0","0","0","0","76","76","0","0","76","76","76","76","76","0","0","0","0","0","0","76","76","76","76","76","76","76","76","76","76","0","76","0","NA","1","NA","0","12/30/15 00:02:06","Default description","no","chinese-japanese-korean","no","18","white","開始實驗A","768","legacy","C:\Users\Evonne\Desktop\test\Compatibility\0_preview\quickrun.csv","xpyriment","Interactive Ising","3.0.2","yes","0","/","space","space","space","space","z","space","space","/","space","813","29078","3129","1613","3717","2541","2832","5102","813","3746","legacy","1000","experiment","999","odd","579898","609016","NA","NA","314336","NA","NA","NA","NA","576704","709754","608982","NA","43890","NA","711521","709987","43890","NA","712522","688383","663362","696325","712526","33167","34785","38509","41056","28049","12558","713527","688889","664367","697331","713533","713533","NA","714360","656682","714460","24145","709753","609017","NA","314336","NA","10978","Hommel2002EXP01","12","10930","13","yes","1024"
"y","yes","no","rect","92.8571428571","92.8571428571","838","838","black","no","xpyriment","legacy","yellow","red","blue","green","legacy","0","uniform","1","1","/","1","0","NA","NA","1","0","NA","1","NA","1","77","0","0","0","0","77","77","0","0","77","77","77","77","77","0","0","0","0","0","0","77","77","77","77","77","77","77","77","77","77","0","77","0","NA","1","NA","0","12/30/15 00:02:06","Default description","no","chinese-japanese-korean","no","18","white","開始實驗A","768","legacy","C:\Users\Evonne\Desktop\test\Compatibility\0_preview\quickrun.csv","xpyriment","Interactive Ising","3.0.2","yes","0","/","space","space","space","space","z","space","space","/","space","806","29078","3129","1613","3717","2541","2832","5102","806","3746","legacy","1500","experiment","999","odd","579898","609016","NA","NA","314336","NA","NA","NA","NA","576704","717952","608982","NA","43890","NA","719656","718125","43890","NA","720657","688383","663362","720662","712526","33167","34785","38509","41056","28049","12558","722162","688889","664367","722168","713533","722168","NA","722981","656682","723081","24145","717951","609017","NA","314336","NA","10978","Hommel2002EXP01","13","11736","14","yes","1024"
"y","yes","no","circle","93.3333333333","93.3333333333","831","831","black","no","xpyriment","legacy","yellow","green","blue","red","legacy","0","uniform","1","1","z","1","0","NA","NA","1","0","NA","1","NA","1","78","0","0","0","0","78","78","0","0","78","78","78","78","78","0","0","0","0","0","0","78","78","78","78","78","78","78","78","78","78","0","78","0","NA","1","NA","0","12/30/15 00:02:06","Default description","no","chinese-japanese-korean","no","18","white","開始實驗A","768","legacy","C:\Users\Evonne\Desktop\test\Compatibility\0_preview\quickrun.csv","xpyriment","Interactive Ising","3.0.2","yes","0","z","space","space","space","space","z","space","space","z","space","740","29078","3129","1613","3717","2541","2832","5102","740","3746","legacy","1000","experiment","999","odd","579898","609016","NA","NA","314336","NA","NA","NA","NA","576704","726894","608982","NA","43890","NA","728564","727033","43890","NA","729565","729570","663362","720662","712526","33167","34785","38509","41056","28049","12558","730570","730575","664367","722168","713533","730576","NA","731323","656682","731423","24145","726893","609017","NA","314336","NA","10978","Hommel2002EXP01","14","12476","15","yes","1024"
"n","yes","no","rect","93.75","93.75","823","823","black","no","xpyriment","legacy","blue","yellow","green","red","legacy","0","uniform","1","1","/","1","0","NA","NA","1","0","NA","1","NA","1","79","0","0","0","0","79","79","0","0","79","79","79","79","79","0","0","0","0","0","0","79","79","79","79","79","79","79","79","79","79","0","79","0","NA","1","NA","0","12/30/15 00:02:06","Default description","no","chinese-japanese-korean","no","18","white","開始實驗A","768","legacy","C:\Users\Evonne\Desktop\test\Compatibility\0_preview\quickrun.csv","xpyriment","Interactive Ising","3.0.2","yes","0","/","space","space","space","space","z","space","space","/","space","692","29078","3129","1613","3717","2541","2832","5102","692","3746","legacy","1500","experiment","999","odd","579898","609016","NA","NA","314336","NA","NA","NA","NA","576704","735150","608982","NA","43890","NA","736824","735293","43890","NA","737825","729570","663362","720662","737831","33167","34785","38509","41056","28049","12558","739331","730575","664367","722168","739335","739336","NA","740037","656682","740137","24145","735150","609017","NA","314336","NA","10978","Hommel2002EXP01","15","13168","16","yes","1024"
"n","yes","no","circle","94.1176470588","94.1176470588","815","815","black","no","xpyriment","legacy","red","blue","yellow","green","legacy","0","uniform","1","1","z","1","0","NA","NA","1","0","NA","1","NA","1","80","0","0","0","0","80","80","0","0","80","80","80","80","80","0","0","0","0","0","0","80","80","80","80","80","80","80","80","80","80","0","80","0","NA","1","NA","0","12/30/15 00:02:06","Default description","no","chinese-japanese-korean","no","18","white","開始實驗A","768","legacy","C:\Users\Evonne\Desktop\test\Compatibility\0_preview\quickrun.csv","xpyriment","Interactive Ising","3.0.2","yes","0","z","space","space","space","space","z","space","space","z","space","698","29078","3129","1613","3717","2541","2832","5102","698","3746","legacy","1500","experiment","999","odd","579898","609016","NA","NA","314336","NA","NA","NA","NA","576704","744006","608982","NA","43890","NA","745828","744323","43890","NA","746828","729570","746832","720662","737831","33167","34785","38509","41056","28049","12558","748332","730575","748337","722168","739335","748338","NA","749043","656682","749143","24145","744005","609017","NA","314336","NA","10978","Hommel2002EXP01","16","13866","17","yes","1024"
"n","yes","no","circle","94.4444444444","94.4444444444","819","819","black","no","xpyriment","legacy","blue","red","yellow","green","legacy","0","uniform","1","1","z","1","0","NA","NA","1","0","NA","1","NA","1","81","0","0","0","0","81","81","0","0","81","81","81","81","81","0","0","0","0","0","0","81","81","81","81","81","81","81","81","81","81","0","81","0","NA","1","NA","0","12/30/15 00:02:06","Default description","no","chinese-japanese-korean","no","18","white","開始實驗A","768","legacy","C:\Users\Evonne\Desktop\test\Compatibility\0_preview\quickrun.csv","xpyriment","Interactive Ising","3.0.2","yes","0","z","space","space","space","space","z","space","space","z","space","884","29078","3129","1613","3717","2541","2832","5102","884","3746","legacy","1500","experiment","999","odd","579898","609016","NA","NA","314336","NA","NA","NA","NA","576704","752827","608982","NA","43890","NA","754488","752950","43890","NA","755489","729570","755494","720662","737831","33167","34785","38509","41056","28049","12558","756995","730575","757000","722168","739335","757001","NA","757900","656682","758001","24145","752826","609017","NA","314336","NA","10978","Hommel2002EXP01","17","14750","18","yes","1024"
