"Compatibility","EXPA","EXPB","Shape","acc","accuracy","average_response_time","avg_rt","background","bidi","canvas_backend","clock_backend","color1","color2","color3","color4","color_backend","compensation","coordinates","correct","correct_Target_response","correct_response","count_Block_Break","count_Block_EXPERIMENT_A","count_Block_EXPERIMENT_B","count_Block_Parctice_B","count_Block_Practice_A","count_Block_reset_EXPERIMENT_A","count_Block_reset_EXPERIMENT_B","count_Block_reset_Practice_A","count_Block_reset_Practice_B","count_Break","count_Decide_Color","count_EXPERIMENT_A","count_EXPERIMENT_B","count_EXP_A","count_EXP_B","count_Initial","count_Intertrial","count_Practice_A","count_Practice_B","count_Prepare","count_Prepare_circle_compatible","count_Prepare_circle_incompatible","count_Prepare_rect_compatible","count_Prepare_rect_incompatible","count_Procedure_Ins01","count_Procedure_Ins02","count_Procedure_Ins03","count_Ready","count_Response_Ins","count_Select_Experiment","count_Target","count_Target_circle_compatible","count_Target_circle_incompatible","count_Target_rect_compatible","count_Target_rect_incompatible","count_Target_response","count_Target_response_BadResponse","count_Target_response_Correct","count_Target_response_Wrong","count_Target_response_logger","count_Title","count_Trial","count_Trial_EXPERIMENT_A","count_Trial_EXPERIMENT_B","count_Trial_Practice_A","count_Trial_Practice_B","count_experiment","datetime","description","font_bold","font_family","font_italic","font_size","foreground","form_response","height","keyboard_backend","logfile","mouse_backend","opensesame_codename","opensesame_version","practice","repeat_cycle","response","response_Block_Break","response_Break","response_Procedure_Ins01","response_Procedure_Ins02","response_Procedure_Ins03","response_Ready","response_Response_Ins","response_Target_response","response_Title","response_time","response_time_Block_Break","response_time_Break","response_time_Procedure_Ins01","response_time_Procedure_Ins02","response_time_Procedure_Ins03","response_time_Ready","response_time_Response_Ins","response_time_Target_response","response_time_Title","sampler_backend","soa","start","subject_nr","subject_parity","time_Block_Break","time_Block_EXPERIMENT_A","time_Block_EXPERIMENT_B","time_Block_Parctice_B","time_Block_Practice_A","time_Block_reset_EXPERIMENT_A","time_Block_reset_EXPERIMENT_B","time_Block_reset_Practice_A","time_Block_reset_Practice_B","time_Break","time_Decide_Color","time_EXPERIMENT_A","time_EXPERIMENT_B","time_EXP_A","time_EXP_B","time_Initial","time_Intertrial","time_Practice_A","time_Practice_B","time_Prepare","time_Prepare_circle_compatible","time_Prepare_circle_incompatible","time_Prepare_rect_compatible","time_Prepare_rect_incompatible","time_Procedure_Ins01","time_Procedure_Ins02","time_Procedure_Ins03","time_Ready","time_Response_Ins","time_Select_Experiment","time_Target","time_Target_circle_compatible","time_Target_circle_incompatible","time_Target_rect_compatible","time_Target_rect_incompatible","time_Target_response","time_Target_response_BadResponse","time_Target_response_Correct","time_Target_response_Wrong","time_Target_response_logger","time_Title","time_Trial","time_Trial_EXPERIMENT_A","time_Trial_EXPERIMENT_B","time_Trial_Practice_A","time_Trial_Practice_B","time_experiment","title","total_correct","total_response_time","total_responses","uniform_coordinates","width"
"y","no","yes","rect","100","100","1449","1449","black","no","xpyriment","legacy","yellow","green","blue","red","legacy","0","uniform","1","1","/","1","NA","NA","0","NA","NA","NA","NA","0","NA","0","0","0","0","0","0","0","0","0","0","0","0","0","0","0","0","0","0","0","0","0","0","0","0","0","0","0","0","0","0","0","0","NA","NA","NA","0","0","12/30/15 00:31:36","Default description","no","chinese-japanese-korean","no","18","white","開始實驗B","768","legacy","C:\Users\Evonne\Desktop\test\Compatibility\0_preview\quickrun.csv","xpyriment","Interactive Ising","3.0.2","yes","0","/","NA","NA","space","space","/","space","space","/","space","1449","NA","NA","1131","1056","1079","889","6039","1449","1844","legacy","0","experiment","999","odd","NA","NA","NA","70489","NA","NA","NA","NA","NA","NA","73849","NA","NA","NA","70455","75626","74038","NA","70455","76627","NA","NA","76649","NA","66279","67417","68479","69563","60234","9635","76650","NA","NA","76657","NA","76658","NA","78115","NA","78216","58336","73847","NA","NA","NA","70490","9461","Hommel2002EXP01","1","1449","1","yes","1024"
"y","no","yes","rect","100","100","1078","1078","black","no","xpyriment","legacy","yellow","green","blue","red","legacy","0","uniform","1","1","/","1","NA","NA","0","NA","NA","NA","NA","0","NA","1","0","0","0","0","1","1","0","0","1","1","1","1","1","0","0","0","0","0","0","1","1","1","1","1","1","1","1","1","1","0","1","NA","NA","NA","0","0","12/30/15 00:31:36","Default description","no","chinese-japanese-korean","no","18","white","開始實驗B","768","legacy","C:\Users\Evonne\Desktop\test\Compatibility\0_preview\quickrun.csv","xpyriment","Interactive Ising","3.0.2","yes","0","/","NA","NA","space","space","/","space","space","/","space","707","NA","NA","1131","1056","1079","889","6039","707","1844","legacy","500","experiment","999","odd","NA","NA","NA","70489","NA","NA","NA","NA","NA","NA","81965","NA","NA","NA","70455","83703","82166","NA","70455","84703","NA","NA","84708","NA","66279","67417","68479","69563","60234","9635","85208","NA","NA","85212","NA","85213","NA","85927","NA","86027","58336","81965","NA","NA","NA","70490","9461","Hommel2002EXP01","2","2156","2","yes","1024"
"y","no","yes","rect","100","100","909","909","black","no","xpyriment","legacy","blue","green","red","yellow","legacy","0","uniform","1","1","/","1","NA","NA","0","NA","NA","NA","NA","0","NA","2","0","0","0","0","2","2","0","0","2","2","2","2","2","0","0","0","0","0","0","2","2","2","2","2","2","2","2","2","2","0","2","NA","NA","NA","0","0","12/30/15 00:31:36","Default description","no","chinese-japanese-korean","no","18","white","開始實驗B","768","legacy","C:\Users\Evonne\Desktop\test\Compatibility\0_preview\quickrun.csv","xpyriment","Interactive Ising","3.0.2","yes","0","/","NA","NA","space","space","/","space","space","/","space","572","NA","NA","1131","1056","1079","889","6039","572","1844","legacy","500","experiment","999","odd","NA","NA","NA","70489","NA","NA","NA","NA","NA","NA","89755","NA","NA","NA","70455","91500","89968","NA","70455","92503","NA","NA","92508","NA","66279","67417","68479","69563","60234","9635","93008","NA","NA","93017","NA","93018","NA","93598","NA","93698","58336","89754","NA","NA","NA","70490","9461","Hommel2002EXP01","3","2728","3","yes","1024"
"y","no","yes","circle","100","100","894","894","black","no","xpyriment","legacy","red","yellow","blue","green","legacy","0","uniform","1","1","z","1","NA","NA","0","NA","NA","NA","NA","0","NA","3","0","0","0","0","3","3","0","0","3","3","3","3","3","0","0","0","0","0","0","3","3","3","3","3","3","3","3","3","3","0","3","NA","NA","NA","0","0","12/30/15 00:31:36","Default description","no","chinese-japanese-korean","no","18","white","開始實驗B","768","legacy","C:\Users\Evonne\Desktop\test\Compatibility\0_preview\quickrun.csv","xpyriment","Interactive Ising","3.0.2","yes","0","z","NA","NA","space","space","/","space","space","z","space","848","NA","NA","1131","1056","1079","889","6039","848","1844","legacy","500","experiment","999","odd","NA","NA","NA","70489","NA","NA","NA","NA","NA","NA","97555","NA","NA","NA","70455","99307","97773","NA","70455","100307","100311","NA","92508","NA","66279","67417","68479","69563","60234","9635","100812","100818","NA","93017","NA","100819","NA","101676","NA","101777","58336","97554","NA","NA","NA","70490","9461","Hommel2002EXP01","4","3576","4","yes","1024"
"n","no","yes","rect","100","100","851","851","black","no","xpyriment","legacy","yellow","blue","green","red","legacy","0","uniform","1","1","/","1","NA","NA","0","NA","NA","NA","NA","0","NA","4","0","0","0","0","4","4","0","0","4","4","4","4","4","0","0","0","0","0","0","4","4","4","4","4","4","4","4","4","4","0","4","NA","NA","NA","0","0","12/30/15 00:31:36","Default description","no","chinese-japanese-korean","no","18","white","開始實驗B","768","legacy","C:\Users\Evonne\Desktop\test\Compatibility\0_preview\quickrun.csv","xpyriment","Interactive Ising","3.0.2","yes","0","/","NA","NA","space","space","/","space","space","/","space","679","NA","NA","1131","1056","1079","889","6039","679","1844","legacy","500","experiment","999","odd","NA","NA","NA","70489","NA","NA","NA","NA","NA","NA","105703","NA","NA","NA","70455","107470","105935","NA","70455","108471","100311","NA","92508","108476","66279","67417","68479","69563","60234","9635","108976","100818","NA","93017","108981","108982","NA","109675","NA","109776","58336","105703","NA","NA","NA","70490","9461","Hommel2002EXP01","5","4255","5","yes","1024"
"n","no","yes","rect","100","100","825","825","black","no","xpyriment","legacy","red","yellow","green","blue","legacy","0","uniform","1","1","/","1","NA","NA","0","NA","NA","NA","NA","0","NA","5","0","0","0","0","5","5","0","0","5","5","5","5","5","0","0","0","0","0","0","5","5","5","5","5","5","5","5","5","5","0","5","NA","NA","NA","0","0","12/30/15 00:31:36","Default description","no","chinese-japanese-korean","no","18","white","開始實驗B","768","legacy","C:\Users\Evonne\Desktop\test\Compatibility\0_preview\quickrun.csv","xpyriment","Interactive Ising","3.0.2","yes","0","/","NA","NA","space","space","/","space","space","/","space","696","NA","NA","1131","1056","1079","889","6039","696","1844","legacy","500","experiment","999","odd","NA","NA","NA","70489","NA","NA","NA","NA","NA","NA","113452","NA","NA","NA","70455","115191","113660","NA","70455","116192","100311","NA","92508","116197","66279","67417","68479","69563","60234","9635","116697","100818","NA","93017","116701","116702","NA","117404","NA","117506","58336","113450","NA","NA","NA","70490","9461","Hommel2002EXP01","6","4951","6","yes","1024"
"n","no","yes","circle","100","100","833","833","black","no","xpyriment","legacy","red","blue","green","yellow","legacy","0","uniform","1","1","z","1","NA","NA","0","NA","NA","NA","NA","0","NA","6","0","0","0","0","6","6","0","0","6","6","6","6","6","0","0","0","0","0","0","6","6","6","6","6","6","6","6","6","6","0","6","NA","NA","NA","0","0","12/30/15 00:31:36","Default description","no","chinese-japanese-korean","no","18","white","開始實驗B","768","legacy","C:\Users\Evonne\Desktop\test\Compatibility\0_preview\quickrun.csv","xpyriment","Interactive Ising","3.0.2","yes","0","z","NA","NA","space","space","/","space","space","z","space","882","NA","NA","1131","1056","1079","889","6039","882","1844","legacy","500","experiment","999","odd","NA","NA","NA","70489","NA","NA","NA","NA","NA","NA","121157","NA","NA","NA","70455","122839","121306","NA","70455","123839","100311","123844","92508","116197","66279","67417","68479","69563","60234","9635","124346","100818","124356","93017","116701","124359","NA","125248","NA","125349","58336","121155","NA","NA","NA","70490","9461","Hommel2002EXP01","7","5833","7","yes","1024"
"n","no","yes","circle","87.5","87.5","864","864","black","no","xpyriment","legacy","green","yellow","blue","red","legacy","0","uniform","0","0","z","1","NA","NA","0","NA","NA","NA","NA","0","NA","7","0","0","0","0","7","7","0","0","7","7","7","7","7","0","0","0","0","0","0","7","7","7","7","7","7","7","7","7","7","0","7","NA","NA","NA","0","0","12/30/15 00:31:36","Default description","no","chinese-japanese-korean","no","18","white","開始實驗B","768","legacy","C:\Users\Evonne\Desktop\test\Compatibility\0_preview\quickrun.csv","xpyriment","Interactive Ising","3.0.2","yes","0","/","NA","NA","space","space","/","space","space","/","space","1084","NA","NA","1131","1056","1079","889","6039","1084","1844","legacy","0","experiment","999","odd","NA","NA","NA","70489","NA","NA","NA","NA","NA","NA","129592","NA","NA","NA","70455","131265","129735","NA","70455","132265","100311","132269","92508","116197","66279","67417","68479","69563","60234","9635","132270","100818","132274","93017","116701","132275","NA","125248","133366","133466","58336","129591","NA","NA","NA","70490","9461","Hommel2002EXP01","7","6917","8","yes","1024"
"y","no","yes","rect","88.8888888889","88.8888888889","843","843","black","no","xpyriment","legacy","yellow","red","blue","green","legacy","0","uniform","1","1","/","1","NA","NA","0","NA","NA","NA","NA","0","NA","8","0","0","0","0","8","8","0","0","8","8","8","8","8","0","0","0","0","0","0","8","8","8","8","8","8","8","8","8","8","0","8","NA","NA","NA","0","0","12/30/15 00:31:36","Default description","no","chinese-japanese-korean","no","18","white","開始實驗B","768","legacy","C:\Users\Evonne\Desktop\test\Compatibility\0_preview\quickrun.csv","xpyriment","Interactive Ising","3.0.2","yes","0","/","NA","NA","space","space","/","space","space","/","space","676","NA","NA","1131","1056","1079","889","6039","676","1844","legacy","0","experiment","999","odd","NA","NA","NA","70489","NA","NA","NA","NA","NA","NA","137069","NA","NA","NA","70455","138817","137282","NA","70455","139817","100311","132269","139822","116197","66279","67417","68479","69563","60234","9635","139822","100818","132274","139827","116701","139827","NA","140511","133366","140611","58336","137068","NA","NA","NA","70490","9461","Hommel2002EXP01","8","7593","9","yes","1024"
"n","no","yes","circle","90","90","836","836","black","no","xpyriment","legacy","green","blue","yellow","red","legacy","0","uniform","1","1","z","1","NA","NA","0","NA","NA","NA","NA","0","NA","9","0","0","0","0","9","9","0","0","9","9","9","9","9","0","0","0","0","0","0","9","9","9","9","9","9","9","9","9","9","0","9","NA","NA","NA","0","0","12/30/15 00:31:36","Default description","no","chinese-japanese-korean","no","18","white","開始實驗B","768","legacy","C:\Users\Evonne\Desktop\test\Compatibility\0_preview\quickrun.csv","xpyriment","Interactive Ising","3.0.2","yes","0","z","NA","NA","space","space","/","space","space","z","space","767","NA","NA","1131","1056","1079","889","6039","767","1844","legacy","500","experiment","999","odd","NA","NA","NA","70489","NA","NA","NA","NA","NA","NA","144497","NA","NA","NA","70455","146254","144719","NA","70455","147254","100311","147258","139822","116197","66279","67417","68479","69563","60234","9635","147759","100818","147764","139827","116701","147765","NA","148540","133366","148640","58336","144496","NA","NA","NA","70490","9461","Hommel2002EXP01","9","8360","10","yes","1024"
"n","no","yes","circle","90.9090909091","90.9090909091","817","817","black","no","xpyriment","legacy","green","blue","yellow","red","legacy","0","uniform","1","1","z","1","NA","NA","0","NA","NA","NA","NA","0","NA","10","0","0","0","0","10","10","0","0","10","10","10","10","10","0","0","0","0","0","0","10","10","10","10","10","10","10","10","10","10","0","10","NA","NA","NA","0","0","12/30/15 00:31:36","Default description","no","chinese-japanese-korean","no","18","white","開始實驗B","768","legacy","C:\Users\Evonne\Desktop\test\Compatibility\0_preview\quickrun.csv","xpyriment","Interactive Ising","3.0.2","yes","0","z","NA","NA","space","space","/","space","space","z","space","635","NA","NA","1131","1056","1079","889","6039","635","1844","legacy","0","experiment","999","odd","NA","NA","NA","70489","NA","NA","NA","NA","NA","NA","152400","NA","NA","NA","70455","154139","152607","NA","70455","155139","100311","155143","139822","116197","66279","67417","68479","69563","60234","9635","155144","100818","155148","139827","116701","155149","NA","155798","133366","155898","58336","152399","NA","NA","NA","70490","9461","Hommel2002EXP01","10","8995","11","yes","1024"
"y","no","yes","circle","91.6666666667","91.6666666667","816","816","black","no","xpyriment","legacy","yellow","blue","green","red","legacy","0","uniform","1","1","z","1","NA","NA","0","NA","NA","NA","NA","0","NA","11","0","0","0","0","11","11","0","0","11","11","11","11","11","0","0","0","0","0","0","11","11","11","11","11","11","11","11","11","11","0","11","NA","NA","NA","0","0","12/30/15 00:31:36","Default description","no","chinese-japanese-korean","no","18","white","開始實驗B","768","legacy","C:\Users\Evonne\Desktop\test\Compatibility\0_preview\quickrun.csv","xpyriment","Interactive Ising","3.0.2","yes","0","z","NA","NA","space","space","/","space","space","z","space","805","NA","NA","1131","1056","1079","889","6039","805","1844","legacy","500","experiment","999","odd","NA","NA","NA","70489","NA","NA","NA","NA","NA","NA","159506","NA","NA","NA","70455","161267","159732","NA","70455","162268","162272","155143","139822","116197","66279","67417","68479","69563","60234","9635","162773","162778","155148","139827","116701","162778","NA","163597","133366","163699","58336","159505","NA","NA","NA","70490","9461","Hommel2002EXP01","11","9800","12","yes","1024"
"y","no","yes","circle","92.3076923077","92.3076923077","826","826","black","no","xpyriment","legacy","green","yellow","blue","red","legacy","0","uniform","1","1","z","1","NA","NA","0","NA","NA","NA","NA","0","NA","12","0","0","0","0","12","12","0","0","12","12","12","12","12","0","0","0","0","0","0","12","12","12","12","12","12","12","12","12","12","0","12","NA","NA","NA","0","0","12/30/15 00:31:36","Default description","no","chinese-japanese-korean","no","18","white","開始實驗B","768","legacy","C:\Users\Evonne\Desktop\test\Compatibility\0_preview\quickrun.csv","xpyriment","Interactive Ising","3.0.2","yes","0","z","NA","NA","space","space","/","space","space","z","space","947","NA","NA","1131","1056","1079","889","6039","947","1844","legacy","0","experiment","999","odd","NA","NA","NA","70489","NA","NA","NA","NA","NA","NA","167759","NA","NA","NA","70455","169585","168075","NA","70455","170586","170590","155143","139822","116197","66279","67417","68479","69563","60234","9635","170591","170595","155148","139827","116701","170596","NA","171550","133366","171650","58336","167758","NA","NA","NA","70490","9461","Hommel2002EXP01","12","10747","13","yes","1024"
"y","no","yes","circle","92.8571428571","92.8571428571","822","822","black","no","xpyriment","legacy","yellow","blue","green","red","legacy","0","uniform","1","1","z","1","NA","NA","0","NA","NA","NA","NA","0","NA","13","0","0","0","0","13","13","0","0","13","13","13","13","13","0","0","0","0","0","0","13","13","13","13","13","13","13","13","13","13","0","13","NA","NA","NA","0","0","12/30/15 00:31:36","Default description","no","chinese-japanese-korean","no","18","white","開始實驗B","768","legacy","C:\Users\Evonne\Desktop\test\Compatibility\0_preview\quickrun.csv","xpyriment","Interactive Ising","3.0.2","yes","0","z","NA","NA","space","space","/","space","space","z","space","768","NA","NA","1131","1056","1079","889","6039","768","1844","legacy","0","experiment","999","odd","NA","NA","NA","70489","NA","NA","NA","NA","NA","NA","175227","NA","NA","NA","70455","176890","175357","NA","70455","177891","177896","155143","139822","116197","66279","67417","68479","69563","60234","9635","177897","177901","155148","139827","116701","177902","NA","178678","133366","178778","58336","175226","NA","NA","NA","70490","9461","Hommel2002EXP01","13","11515","14","yes","1024"
"n","no","yes","rect","93.3333333333","93.3333333333","826","826","black","no","xpyriment","legacy","green","yellow","blue","red","legacy","0","uniform","1","1","/","1","NA","NA","0","NA","NA","NA","NA","0","NA","14","0","0","0","0","14","14","0","0","14","14","14","14","14","0","0","0","0","0","0","14","14","14","14","14","14","14","14","14","14","0","14","NA","NA","NA","0","0","12/30/15 00:31:36","Default description","no","chinese-japanese-korean","no","18","white","開始實驗B","768","legacy","C:\Users\Evonne\Desktop\test\Compatibility\0_preview\quickrun.csv","xpyriment","Interactive Ising","3.0.2","yes","0","/","NA","NA","space","space","/","space","space","/","space","879","NA","NA","1131","1056","1079","889","6039","879","1844","legacy","0","experiment","999","odd","NA","NA","NA","70489","NA","NA","NA","NA","NA","NA","182391","NA","NA","NA","70455","184057","182528","NA","70455","185057","177896","155143","139822","185061","66279","67417","68479","69563","60234","9635","185062","177901","155148","139827","185068","185069","NA","185966","133366","186067","58336","182390","NA","NA","NA","70490","9461","Hommel2002EXP01","14","12394","15","yes","1024"
"n","no","yes","rect","93.75","93.75","823","823","black","no","xpyriment","legacy","green","red","yellow","blue","legacy","0","uniform","1","1","/","1","NA","NA","0","NA","NA","NA","NA","0","NA","15","0","0","0","0","15","15","0","0","15","15","15","15","15","0","0","0","0","0","0","15","15","15","15","15","15","15","15","15","15","0","15","NA","NA","NA","0","0","12/30/15 00:31:36","Default description","no","chinese-japanese-korean","no","18","white","開始實驗B","768","legacy","C:\Users\Evonne\Desktop\test\Compatibility\0_preview\quickrun.csv","xpyriment","Interactive Ising","3.0.2","yes","0","/","NA","NA","space","space","/","space","space","/","space","774","NA","NA","1131","1056","1079","889","6039","774","1844","legacy","0","experiment","999","odd","NA","NA","NA","70489","NA","NA","NA","NA","NA","NA","189742","NA","NA","NA","70455","191485","189954","NA","70455","192486","177896","155143","139822","192490","66279","67417","68479","69563","60234","9635","192491","177901","155148","139827","192496","192497","NA","193277","133366","193378","58336","189741","NA","NA","NA","70490","9461","Hommel2002EXP01","15","13168","16","yes","1024"
"y","no","yes","rect","100","100","563","563","black","no","xpyriment","legacy","green","yellow","red","blue","legacy","0","uniform","1","1","/","1","NA","NA","1","NA","NA","NA","NA","1","NA","16","0","0","0","0","16","16","0","0","16","16","16","16","16","0","0","0","0","0","0","16","16","16","16","16","16","16","16","16","16","0","16","NA","NA","NA","1","0","12/30/15 00:31:36","Default description","no","chinese-japanese-korean","no","18","white","開始實驗B","768","legacy","C:\Users\Evonne\Desktop\test\Compatibility\0_preview\quickrun.csv","xpyriment","Interactive Ising","3.0.2","yes","0","/","NA","NA","space","space","/","space","space","/","space","563","NA","NA","1131","1056","1079","889","6039","563","1844","legacy","500","experiment","999","odd","NA","NA","NA","193418","NA","NA","NA","NA","NA","NA","197083","NA","NA","NA","70455","198839","197311","NA","70455","199839","177896","155143","199843","192490","66279","67417","68479","69563","60234","9635","200344","177901","155148","200349","192496","200349","NA","200925","133366","201026","58336","197082","NA","NA","NA","193419","9461","Hommel2002EXP01","1","563","1","yes","1024"
"y","no","yes","circle","100","100","629","629","black","no","xpyriment","legacy","yellow","red","green","blue","legacy","0","uniform","1","1","z","1","NA","NA","1","NA","NA","NA","NA","1","NA","17","0","0","0","0","17","17","0","0","17","17","17","17","17","0","0","0","0","0","0","17","17","17","17","17","17","17","17","17","17","0","17","NA","NA","NA","1","0","12/30/15 00:31:36","Default description","no","chinese-japanese-korean","no","18","white","開始實驗B","768","legacy","C:\Users\Evonne\Desktop\test\Compatibility\0_preview\quickrun.csv","xpyriment","Interactive Ising","3.0.2","yes","0","z","NA","NA","space","space","/","space","space","z","space","695","NA","NA","1131","1056","1079","889","6039","695","1844","legacy","0","experiment","999","odd","NA","NA","NA","193418","NA","NA","NA","NA","NA","NA","204505","NA","NA","NA","70455","206320","204787","NA","70455","207320","207325","155143","199843","192490","66279","67417","68479","69563","60234","9635","207326","207331","155148","200349","192496","207332","NA","208035","133366","208135","58336","204504","NA","NA","NA","193419","9461","Hommel2002EXP01","2","1258","2","yes","1024"
"n","no","yes","circle","100","100","694","694","black","no","xpyriment","legacy","yellow","blue","red","green","legacy","0","uniform","1","1","z","1","NA","NA","1","NA","NA","NA","NA","1","NA","18","0","0","0","0","18","18","0","0","18","18","18","18","18","0","0","0","0","0","0","18","18","18","18","18","18","18","18","18","18","0","18","NA","NA","NA","1","0","12/30/15 00:31:36","Default description","no","chinese-japanese-korean","no","18","white","開始實驗B","768","legacy","C:\Users\Evonne\Desktop\test\Compatibility\0_preview\quickrun.csv","xpyriment","Interactive Ising","3.0.2","yes","0","z","NA","NA","space","space","/","space","space","z","space","826","NA","NA","1131","1056","1079","889","6039","826","1844","legacy","0","experiment","999","odd","NA","NA","NA","193418","NA","NA","NA","NA","NA","NA","212185","NA","NA","NA","70455","213952","212403","NA","70455","214953","207325","214959","199843","192490","66279","67417","68479","69563","60234","9635","214960","207331","214965","200349","192496","214968","NA","215804","133366","215904","58336","212184","NA","NA","NA","193419","9461","Hommel2002EXP01","3","2084","3","yes","1024"
"n","no","yes","rect","100","100","920","920","black","no","xpyriment","legacy","red","yellow","green","blue","legacy","0","uniform","1","1","/","1","NA","NA","1","NA","NA","NA","NA","1","NA","19","0","0","0","0","19","19","0","0","19","19","19","19","19","0","0","0","0","0","0","19","19","19","19","19","19","19","19","19","19","0","19","NA","NA","NA","1","0","12/30/15 00:31:36","Default description","no","chinese-japanese-korean","no","18","white","開始實驗B","768","legacy","C:\Users\Evonne\Desktop\test\Compatibility\0_preview\quickrun.csv","xpyriment","Interactive Ising","3.0.2","yes","0","/","NA","NA","space","space","/","space","space","/","space","1599","NA","NA","1131","1056","1079","889","6039","1599","1844","legacy","500","experiment","999","odd","NA","NA","NA","193418","NA","NA","NA","NA","NA","NA","219529","NA","NA","NA","70455","221277","219740","NA","70455","222278","207325","214959","199843","222284","66279","67417","68479","69563","60234","9635","222784","207331","214965","200349","222789","222790","NA","224404","133366","224505","58336","219529","NA","NA","NA","193419","9461","Hommel2002EXP01","4","3683","4","yes","1024"
"n","no","yes","circle","100","100","867","867","black","no","xpyriment","legacy","yellow","blue","green","red","legacy","0","uniform","1","1","z","1","NA","NA","1","NA","NA","NA","NA","1","NA","20","0","0","0","0","20","20","0","0","20","20","20","20","20","0","0","0","0","0","0","20","20","20","20","20","20","20","20","20","20","0","20","NA","NA","NA","1","0","12/30/15 00:31:36","Default description","no","chinese-japanese-korean","no","18","white","開始實驗B","768","legacy","C:\Users\Evonne\Desktop\test\Compatibility\0_preview\quickrun.csv","xpyriment","Interactive Ising","3.0.2","yes","0","z","NA","NA","space","space","/","space","space","z","space","652","NA","NA","1131","1056","1079","889","6039","652","1844","legacy","500","experiment","999","odd","NA","NA","NA","193418","NA","NA","NA","NA","NA","NA","228297","NA","NA","NA","70455","229982","228447","NA","70455","230983","207325","230987","199843","222284","66279","67417","68479","69563","60234","9635","231487","207331","231492","200349","222789","231492","NA","232157","133366","232258","58336","228296","NA","NA","NA","193419","9461","Hommel2002EXP01","5","4335","5","yes","1024"
"y","no","yes","circle","100","100","846","846","black","no","xpyriment","legacy","green","blue","red","yellow","legacy","0","uniform","1","1","z","1","NA","NA","1","NA","NA","NA","NA","1","NA","21","0","0","0","0","21","21","0","0","21","21","21","21","21","0","0","0","0","0","0","21","21","21","21","21","21","21","21","21","21","0","21","NA","NA","NA","1","0","12/30/15 00:31:36","Default description","no","chinese-japanese-korean","no","18","white","開始實驗B","768","legacy","C:\Users\Evonne\Desktop\test\Compatibility\0_preview\quickrun.csv","xpyriment","Interactive Ising","3.0.2","yes","0","z","NA","NA","space","space","/","space","space","z","space","744","NA","NA","1131","1056","1079","889","6039","744","1844","legacy","500","experiment","999","odd","NA","NA","NA","193418","NA","NA","NA","NA","NA","NA","236169","NA","NA","NA","70455","237866","236328","NA","70455","238867","238871","230987","199843","222284","66279","67417","68479","69563","60234","9635","239372","239377","231492","200349","222789","239377","NA","240140","133366","240241","58336","236168","NA","NA","NA","193419","9461","Hommel2002EXP01","6","5079","6","yes","1024"
"y","no","yes","rect","100","100","913","913","black","no","xpyriment","legacy","blue","yellow","red","green","legacy","0","uniform","1","1","/","1","NA","NA","1","NA","NA","NA","NA","1","NA","22","0","0","0","0","22","22","0","0","22","22","22","22","22","0","0","0","0","0","0","22","22","22","22","22","22","22","22","22","22","0","22","NA","NA","NA","1","0","12/30/15 00:31:36","Default description","no","chinese-japanese-korean","no","18","white","開始實驗B","768","legacy","C:\Users\Evonne\Desktop\test\Compatibility\0_preview\quickrun.csv","xpyriment","Interactive Ising","3.0.2","yes","0","/","NA","NA","space","space","/","space","space","/","space","1314","NA","NA","1131","1056","1079","889","6039","1314","1844","legacy","0","experiment","999","odd","NA","NA","NA","193418","NA","NA","NA","NA","NA","NA","244060","NA","NA","NA","70455","245821","244293","NA","70455","246821","238871","230987","246826","222284","66279","67417","68479","69563","60234","9635","246827","239377","231492","246831","222789","246832","NA","248153","133366","248255","58336","244059","NA","NA","NA","193419","9461","Hommel2002EXP01","7","6393","7","yes","1024"
"n","no","yes","circle","100","100","882","882","black","no","xpyriment","legacy","blue","red","yellow","green","legacy","0","uniform","1","1","z","1","NA","NA","1","NA","NA","NA","NA","1","NA","23","0","0","0","0","23","23","0","0","23","23","23","23","23","0","0","0","0","0","0","23","23","23","23","23","23","23","23","23","23","0","23","NA","NA","NA","1","0","12/30/15 00:31:36","Default description","no","chinese-japanese-korean","no","18","white","開始實驗B","768","legacy","C:\Users\Evonne\Desktop\test\Compatibility\0_preview\quickrun.csv","xpyriment","Interactive Ising","3.0.2","yes","0","z","NA","NA","space","space","/","space","space","z","space","666","NA","NA","1131","1056","1079","889","6039","666","1844","legacy","500","experiment","999","odd","NA","NA","NA","193418","NA","NA","NA","NA","NA","NA","252119","NA","NA","NA","70455","253899","252370","NA","70455","254899","238871","254903","246826","222284","66279","67417","68479","69563","60234","9635","255404","239377","255409","246831","222789","255410","NA","256083","133366","256183","58336","252118","NA","NA","NA","193419","9461","Hommel2002EXP01","8","7059","8","yes","1024"
"y","no","yes","circle","100","100","855","855","black","no","xpyriment","legacy","yellow","red","blue","green","legacy","0","uniform","1","1","z","1","NA","NA","1","NA","NA","NA","NA","1","NA","24","0","0","0","0","24","24","0","0","24","24","24","24","24","0","0","0","0","0","0","24","24","24","24","24","24","24","24","24","24","0","24","NA","NA","NA","1","0","12/30/15 00:31:36","Default description","no","chinese-japanese-korean","no","18","white","開始實驗B","768","legacy","C:\Users\Evonne\Desktop\test\Compatibility\0_preview\quickrun.csv","xpyriment","Interactive Ising","3.0.2","yes","0","z","NA","NA","space","space","/","space","space","z","space","639","NA","NA","1131","1056","1079","889","6039","639","1844","legacy","500","experiment","999","odd","NA","NA","NA","193418","NA","NA","NA","NA","NA","NA","259976","NA","NA","NA","70455","261890","260353","NA","70455","262891","262896","254903","246826","222284","66279","67417","68479","69563","60234","9635","263397","263402","255409","246831","222789","263402","NA","264049","133366","264150","58336","259976","NA","NA","NA","193419","9461","Hommel2002EXP01","9","7698","9","yes","1024"
"n","no","yes","rect","90","90","846","846","black","no","xpyriment","legacy","yellow","red","green","blue","legacy","0","uniform","0","0","/","1","NA","NA","1","NA","NA","NA","NA","1","NA","25","0","0","0","0","25","25","0","0","25","25","25","25","25","0","0","0","0","0","0","25","25","25","25","25","25","25","25","25","25","0","25","NA","NA","NA","1","0","12/30/15 00:31:36","Default description","no","chinese-japanese-korean","no","18","white","開始實驗B","768","legacy","C:\Users\Evonne\Desktop\test\Compatibility\0_preview\quickrun.csv","xpyriment","Interactive Ising","3.0.2","yes","0","z","NA","NA","space","space","/","space","space","z","space","764","NA","NA","1131","1056","1079","889","6039","764","1844","legacy","500","experiment","999","odd","NA","NA","NA","193418","NA","NA","NA","NA","NA","NA","268173","NA","NA","NA","70455","269948","268417","NA","70455","270948","262896","254903","246826","270953","66279","67417","68479","69563","60234","9635","271453","263402","255409","246831","271457","271458","NA","264049","272231","272331","58336","268172","NA","NA","NA","193419","9461","Hommel2002EXP01","9","8462","10","yes","1024"
"y","no","yes","rect","90.9090909091","90.9090909091","822","822","black","no","xpyriment","legacy","red","yellow","blue","green","legacy","0","uniform","1","1","/","1","NA","NA","1","NA","NA","NA","NA","1","NA","26","0","0","0","0","26","26","0","0","26","26","26","26","26","0","0","0","0","0","0","26","26","26","26","26","26","26","26","26","26","0","26","NA","NA","NA","1","0","12/30/15 00:31:36","Default description","no","chinese-japanese-korean","no","18","white","開始實驗B","768","legacy","C:\Users\Evonne\Desktop\test\Compatibility\0_preview\quickrun.csv","xpyriment","Interactive Ising","3.0.2","yes","0","/","NA","NA","space","space","/","space","space","/","space","585","NA","NA","1131","1056","1079","889","6039","585","1844","legacy","500","experiment","999","odd","NA","NA","NA","193418","NA","NA","NA","NA","NA","NA","276100","NA","NA","NA","70455","277896","276367","NA","70455","278896","262896","254903","278900","270953","66279","67417","68479","69563","60234","9635","279401","263402","255409","279405","271457","279406","NA","280009","272231","280110","58336","276098","NA","NA","NA","193419","9461","Hommel2002EXP01","10","9047","11","yes","1024"
"n","no","yes","circle","91.6666666667","91.6666666667","900","900","black","no","xpyriment","legacy","green","yellow","blue","red","legacy","0","uniform","1","1","z","1","NA","NA","1","NA","NA","NA","NA","1","NA","27","0","0","0","0","27","27","0","0","27","27","27","27","27","0","0","0","0","0","0","27","27","27","27","27","27","27","27","27","27","0","27","NA","NA","NA","1","0","12/30/15 00:31:36","Default description","no","chinese-japanese-korean","no","18","white","開始實驗B","768","legacy","C:\Users\Evonne\Desktop\test\Compatibility\0_preview\quickrun.csv","xpyriment","Interactive Ising","3.0.2","yes","0","z","NA","NA","space","space","/","space","space","z","space","1754","NA","NA","1131","1056","1079","889","6039","1754","1844","legacy","0","experiment","999","odd","NA","NA","NA","193418","NA","NA","NA","NA","NA","NA","283818","NA","NA","NA","70455","285592","284050","NA","70455","286593","262896","286598","278900","270953","66279","67417","68479","69563","60234","9635","286598","263402","286603","279405","271457","286603","NA","288377","272231","288477","58336","283817","NA","NA","NA","193419","9461","Hommel2002EXP01","11","10801","12","yes","1024"
"y","no","yes","circle","92.3076923077","92.3076923077","891","891","black","no","xpyriment","legacy","red","yellow","blue","green","legacy","0","uniform","1","1","z","1","NA","NA","1","NA","NA","NA","NA","1","NA","28","0","0","0","0","28","28","0","0","28","28","28","28","28","0","0","0","0","0","0","28","28","28","28","28","28","28","28","28","28","0","28","NA","NA","NA","1","0","12/30/15 00:31:36","Default description","no","chinese-japanese-korean","no","18","white","開始實驗B","768","legacy","C:\Users\Evonne\Desktop\test\Compatibility\0_preview\quickrun.csv","xpyriment","Interactive Ising","3.0.2","yes","0","z","NA","NA","space","space","/","space","space","z","space","788","NA","NA","1131","1056","1079","889","6039","788","1844","legacy","0","experiment","999","odd","NA","NA","NA","193418","NA","NA","NA","NA","NA","NA","293629","NA","NA","NA","70455","295397","293857","NA","70455","296398","296403","286598","278900","270953","66279","67417","68479","69563","60234","9635","296404","296409","286603","279405","271457","296409","NA","297216","272231","297317","58336","293622","NA","NA","NA","193419","9461","Hommel2002EXP01","12","11589","13","yes","1024"
"y","no","yes","rect","92.8571428571","92.8571428571","880","880","black","no","xpyriment","legacy","green","red","blue","yellow","legacy","0","uniform","1","1","/","1","NA","NA","1","NA","NA","NA","NA","1","NA","29","0","0","0","0","29","29","0","0","29","29","29","29","29","0","0","0","0","0","0","29","29","29","29","29","29","29","29","29","29","0","29","NA","NA","NA","1","0","12/30/15 00:31:36","Default description","no","chinese-japanese-korean","no","18","white","開始實驗B","768","legacy","C:\Users\Evonne\Desktop\test\Compatibility\0_preview\quickrun.csv","xpyriment","Interactive Ising","3.0.2","yes","0","/","NA","NA","space","space","/","space","space","/","space","742","NA","NA","1131","1056","1079","889","6039","742","1844","legacy","0","experiment","999","odd","NA","NA","NA","193418","NA","NA","NA","NA","NA","NA","301379","NA","NA","NA","70455","303124","301584","NA","70455","304124","296403","286598","304129","270953","66279","67417","68479","69563","60234","9635","304130","296409","286603","304136","271457","304136","NA","304887","272231","304988","58336","301378","NA","NA","NA","193419","9461","Hommel2002EXP01","13","12331","14","yes","1024"
"n","no","yes","rect","93.3333333333","93.3333333333","884","884","black","no","xpyriment","legacy","red","green","blue","yellow","legacy","0","uniform","1","1","/","1","NA","NA","1","NA","NA","NA","NA","1","NA","30","0","0","0","0","30","30","0","0","30","30","30","30","30","0","0","0","0","0","0","30","30","30","30","30","30","30","30","30","30","0","30","NA","NA","NA","1","0","12/30/15 00:31:36","Default description","no","chinese-japanese-korean","no","18","white","開始實驗B","768","legacy","C:\Users\Evonne\Desktop\test\Compatibility\0_preview\quickrun.csv","xpyriment","Interactive Ising","3.0.2","yes","0","/","NA","NA","space","space","/","space","space","/","space","943","NA","NA","1131","1056","1079","889","6039","943","1844","legacy","0","experiment","999","odd","NA","NA","NA","193418","NA","NA","NA","NA","NA","NA","308577","NA","NA","NA","70455","310246","308703","NA","70455","311247","296403","286598","304129","311251","66279","67417","68479","69563","60234","9635","311252","296409","286603","304136","311258","311260","NA","312210","272231","312310","58336","308576","NA","NA","NA","193419","9461","Hommel2002EXP01","14","13274","15","yes","1024"
"n","no","yes","rect","93.75","93.75","873","873","black","no","xpyriment","legacy","green","blue","red","yellow","legacy","0","uniform","1","1","/","1","NA","NA","1","NA","NA","NA","NA","1","NA","31","0","0","0","0","31","31","0","0","31","31","31","31","31","0","0","0","0","0","0","31","31","31","31","31","31","31","31","31","31","0","31","NA","NA","NA","1","0","12/30/15 00:31:36","Default description","no","chinese-japanese-korean","no","18","white","開始實驗B","768","legacy","C:\Users\Evonne\Desktop\test\Compatibility\0_preview\quickrun.csv","xpyriment","Interactive Ising","3.0.2","yes","0","/","NA","NA","space","space","/","space","space","/","space","703","NA","NA","1131","1056","1079","889","6039","703","1844","legacy","0","experiment","999","odd","NA","NA","NA","193418","NA","NA","NA","NA","NA","NA","316201","NA","NA","NA","70455","317873","316337","NA","70455","318874","296403","286598","304129","318879","66279","67417","68479","69563","60234","9635","318880","296409","286603","304136","318885","318885","NA","319602","272231","319703","58336","316200","NA","NA","NA","193419","9461","Hommel2002EXP01","15","13977","16","yes","1024"
"n","no","yes","rect","100","100","649","649","black","no","xpyriment","legacy","red","green","yellow","blue","legacy","0","uniform","1","1","/","1","NA","NA","2","NA","NA","NA","NA","2","0","32","0","0","0","0","32","32","0","0","32","32","32","32","32","0","0","0","0","0","0","32","32","32","32","32","32","32","32","32","32","0","32","NA","NA","NA","2","0","12/30/15 00:31:36","Default description","no","chinese-japanese-korean","no","18","white","開始實驗B","768","legacy","C:\Users\Evonne\Desktop\test\Compatibility\0_preview\quickrun.csv","xpyriment","Interactive Ising","3.0.2","yes","0","/","NA","space","space","space","/","space","space","/","space","649","NA","3280","1131","1056","1079","889","6039","649","1844","legacy","500","experiment","999","odd","NA","NA","NA","324167","NA","NA","NA","NA","NA","320878","327809","NA","NA","NA","70455","329489","327954","NA","70455","330490","296403","286598","304129","330496","66279","67417","68479","69563","60234","9635","330996","296409","286603","304136","331001","331002","NA","331659","272231","331759","58336","327808","NA","NA","NA","324167","9461","Hommel2002EXP01","1","649","1","yes","1024"
"y","no","yes","rect","100","100","674","674","black","no","xpyriment","legacy","blue","red","yellow","green","legacy","0","uniform","1","1","/","1","NA","NA","2","NA","NA","NA","NA","2","0","33","0","0","0","0","33","33","0","0","33","33","33","33","33","0","0","0","0","0","0","33","33","33","33","33","33","33","33","33","33","0","33","NA","NA","NA","2","0","12/30/15 00:31:36","Default description","no","chinese-japanese-korean","no","18","white","開始實驗B","768","legacy","C:\Users\Evonne\Desktop\test\Compatibility\0_preview\quickrun.csv","xpyriment","Interactive Ising","3.0.2","yes","0","/","NA","space","space","space","/","space","space","/","space","699","NA","3280","1131","1056","1079","889","6039","699","1844","legacy","500","experiment","999","odd","NA","NA","NA","324167","NA","NA","NA","NA","NA","320878","335481","NA","NA","NA","70455","337234","335697","NA","70455","338234","296403","286598","338239","330496","66279","67417","68479","69563","60234","9635","338740","296409","286603","338745","331001","338745","NA","339462","272231","339563","58336","335481","NA","NA","NA","324167","9461","Hommel2002EXP01","2","1348","2","yes","1024"
"y","no","yes","rect","100","100","639","639","black","no","xpyriment","legacy","green","red","blue","yellow","legacy","0","uniform","1","1","/","1","NA","NA","2","NA","NA","NA","NA","2","0","34","0","0","0","0","34","34","0","0","34","34","34","34","34","0","0","0","0","0","0","34","34","34","34","34","34","34","34","34","34","0","34","NA","NA","NA","2","0","12/30/15 00:31:36","Default description","no","chinese-japanese-korean","no","18","white","開始實驗B","768","legacy","C:\Users\Evonne\Desktop\test\Compatibility\0_preview\quickrun.csv","xpyriment","Interactive Ising","3.0.2","yes","0","/","NA","space","space","space","/","space","space","/","space","571","NA","3280","1131","1056","1079","889","6039","571","1844","legacy","500","experiment","999","odd","NA","NA","NA","324167","NA","NA","NA","NA","NA","320878","343010","NA","NA","NA","70455","344765","343231","NA","70455","345766","296403","286598","345771","330496","66279","67417","68479","69563","60234","9635","346271","296409","286603","346281","331001","346282","NA","346860","272231","346961","58336","343009","NA","NA","NA","324167","9461","Hommel2002EXP01","3","1919","3","yes","1024"
"y","no","yes","circle","100","100","645","645","black","no","xpyriment","legacy","blue","green","red","yellow","legacy","0","uniform","1","1","z","1","NA","NA","2","NA","NA","NA","NA","2","0","35","0","0","0","0","35","35","0","0","35","35","35","35","35","0","0","0","0","0","0","35","35","35","35","35","35","35","35","35","35","0","35","NA","NA","NA","2","0","12/30/15 00:31:36","Default description","no","chinese-japanese-korean","no","18","white","開始實驗B","768","legacy","C:\Users\Evonne\Desktop\test\Compatibility\0_preview\quickrun.csv","xpyriment","Interactive Ising","3.0.2","yes","0","z","NA","space","space","space","/","space","space","z","space","662","NA","3280","1131","1056","1079","889","6039","662","1844","legacy","500","experiment","999","odd","NA","NA","NA","324167","NA","NA","NA","NA","NA","320878","350669","NA","NA","NA","70455","352519","351014","NA","70455","353520","353525","286598","345771","330496","66279","67417","68479","69563","60234","9635","354025","354030","286603","346281","331001","354031","NA","354701","272231","354801","58336","350669","NA","NA","NA","324167","9461","Hommel2002EXP01","4","2581","4","yes","1024"
"n","no","yes","circle","80","80","674","674","black","no","xpyriment","legacy","blue","yellow","green","red","legacy","0","uniform","0","0","z","1","NA","NA","2","NA","NA","NA","NA","2","0","36","0","0","0","0","36","36","0","0","36","36","36","36","36","0","0","0","0","0","0","36","36","36","36","36","36","36","36","36","36","0","36","NA","NA","NA","2","0","12/30/15 00:31:36","Default description","no","chinese-japanese-korean","no","18","white","開始實驗B","768","legacy","C:\Users\Evonne\Desktop\test\Compatibility\0_preview\quickrun.csv","xpyriment","Interactive Ising","3.0.2","yes","0","/","NA","space","space","space","/","space","space","/","space","793","NA","3280","1131","1056","1079","889","6039","793","1844","legacy","500","experiment","999","odd","NA","NA","NA","324167","NA","NA","NA","NA","NA","320878","358316","NA","NA","NA","70455","360027","358498","NA","70455","361027","353525","361031","345771","330496","66279","67417","68479","69563","60234","9635","361531","354030","361536","346281","331001","361536","NA","354701","362347","362448","58336","358315","NA","NA","NA","324167","9461","Hommel2002EXP01","4","3374","5","yes","1024"
"n","no","yes","rect","66.6666666667","66.6666666667","685","685","black","no","xpyriment","legacy","yellow","red","green","blue","legacy","0","uniform","0","0","/","1","NA","NA","2","NA","NA","NA","NA","2","0","37","0","0","0","0","37","37","0","0","37","37","37","37","37","0","0","0","0","0","0","37","37","37","37","37","37","37","37","37","37","0","37","NA","NA","NA","2","0","12/30/15 00:31:36","Default description","no","chinese-japanese-korean","no","18","white","開始實驗B","768","legacy","C:\Users\Evonne\Desktop\test\Compatibility\0_preview\quickrun.csv","xpyriment","Interactive Ising","3.0.2","yes","0","z","NA","space","space","space","/","space","space","z","space","739","NA","3280","1131","1056","1079","889","6039","739","1844","legacy","500","experiment","999","odd","NA","NA","NA","324167","NA","NA","NA","NA","NA","320878","366038","NA","NA","NA","70455","367733","366196","NA","70455","368733","353525","361031","345771","368737","66279","67417","68479","69563","60234","9635","369238","354030","361536","346281","369251","369253","NA","354701","370000","370101","58336","366037","NA","NA","NA","324167","9461","Hommel2002EXP01","4","4113","6","yes","1024"
"n","no","yes","rect","71.4285714286","71.4285714286","678","678","black","no","xpyriment","legacy","red","yellow","blue","green","legacy","0","uniform","1","1","/","1","NA","NA","2","NA","NA","NA","NA","2","0","38","0","0","0","0","38","38","0","0","38","38","38","38","38","0","0","0","0","0","0","38","38","38","38","38","38","38","38","38","38","0","38","NA","NA","NA","2","0","12/30/15 00:31:36","Default description","no","chinese-japanese-korean","no","18","white","開始實驗B","768","legacy","C:\Users\Evonne\Desktop\test\Compatibility\0_preview\quickrun.csv","xpyriment","Interactive Ising","3.0.2","yes","0","/","NA","space","space","space","/","space","space","/","space","635","NA","3280","1131","1056","1079","889","6039","635","1844","legacy","0","experiment","999","odd","NA","NA","NA","324167","NA","NA","NA","NA","NA","320878","373727","NA","NA","NA","70455","375496","373963","NA","70455","376496","353525","361031","345771","376500","66279","67417","68479","69563","60234","9635","376501","354030","361536","346281","376506","376507","NA","377149","370000","377250","58336","373726","NA","NA","NA","324167","9461","Hommel2002EXP01","5","4748","7","yes","1024"
"n","no","yes","rect","75","75","682","682","black","no","xpyriment","legacy","blue","red","green","yellow","legacy","0","uniform","1","1","/","1","NA","NA","2","NA","NA","NA","NA","2","0","39","0","0","0","0","39","39","0","0","39","39","39","39","39","0","0","0","0","0","0","39","39","39","39","39","39","39","39","39","39","0","39","NA","NA","NA","2","0","12/30/15 00:31:36","Default description","no","chinese-japanese-korean","no","18","white","開始實驗B","768","legacy","C:\Users\Evonne\Desktop\test\Compatibility\0_preview\quickrun.csv","xpyriment","Interactive Ising","3.0.2","yes","0","/","NA","space","space","space","/","space","space","/","space","709","NA","3280","1131","1056","1079","889","6039","709","1844","legacy","0","experiment","999","odd","NA","NA","NA","324167","NA","NA","NA","NA","NA","320878","380806","NA","NA","NA","70455","382562","381028","NA","70455","383562","353525","361031","345771","383567","66279","67417","68479","69563","60234","9635","383568","354030","361536","346281","383574","383575","NA","384301","370000","384402","58336","380806","NA","NA","NA","324167","9461","Hommel2002EXP01","6","5457","8","yes","1024"
"n","no","yes","circle","77.7777777778","77.7777777778","806","806","black","no","xpyriment","legacy","red","blue","yellow","green","legacy","0","uniform","1","1","z","1","NA","NA","2","NA","NA","NA","NA","2","0","40","0","0","0","0","40","40","0","0","40","40","40","40","40","0","0","0","0","0","0","40","40","40","40","40","40","40","40","40","40","0","40","NA","NA","NA","2","0","12/30/15 00:31:36","Default description","no","chinese-japanese-korean","no","18","white","開始實驗B","768","legacy","C:\Users\Evonne\Desktop\test\Compatibility\0_preview\quickrun.csv","xpyriment","Interactive Ising","3.0.2","yes","0","z","NA","space","space","space","/","space","space","z","space","1799","NA","3280","1131","1056","1079","889","6039","1799","1844","legacy","0","experiment","999","odd","NA","NA","NA","324167","NA","NA","NA","NA","NA","320878","388040","NA","NA","NA","70455","389849","388345","NA","70455","390849","353525","390853","345771","383567","66279","67417","68479","69563","60234","9635","390854","354030","390858","346281","383574","390859","NA","392666","370000","392766","58336","388040","NA","NA","NA","324167","9461","Hommel2002EXP01","7","7256","9","yes","1024"
"y","no","yes","rect","80","80","827","827","black","no","xpyriment","legacy","red","yellow","green","blue","legacy","0","uniform","1","1","/","1","NA","NA","2","NA","NA","NA","NA","2","0","41","0","0","0","0","41","41","0","0","41","41","41","41","41","0","0","0","0","0","0","41","41","41","41","41","41","41","41","41","41","0","41","NA","NA","NA","2","0","12/30/15 00:31:36","Default description","no","chinese-japanese-korean","no","18","white","開始實驗B","768","legacy","C:\Users\Evonne\Desktop\test\Compatibility\0_preview\quickrun.csv","xpyriment","Interactive Ising","3.0.2","yes","0","/","NA","space","space","space","/","space","space","/","space","1015","NA","3280","1131","1056","1079","889","6039","1015","1844","legacy","0","experiment","999","odd","NA","NA","NA","324167","NA","NA","NA","NA","NA","320878","396476","NA","NA","NA","70455","398167","396628","NA","70455","399167","353525","390853","399172","383567","66279","67417","68479","69563","60234","9635","399173","354030","390858","399177","383574","399177","NA","400200","370000","400301","58336","396476","NA","NA","NA","324167","9461","Hommel2002EXP01","8","8271","10","yes","1024"
"y","no","yes","circle","72.7272727273","72.7272727273","933","933","black","no","xpyriment","legacy","red","yellow","green","blue","legacy","0","uniform","0","0","z","1","NA","NA","2","NA","NA","NA","NA","2","0","42","0","0","0","0","42","42","0","0","42","42","42","42","42","0","0","0","0","0","0","42","42","42","42","42","42","42","42","42","42","0","42","NA","NA","NA","2","0","12/30/15 00:31:36","Default description","no","chinese-japanese-korean","no","18","white","開始實驗B","768","legacy","C:\Users\Evonne\Desktop\test\Compatibility\0_preview\quickrun.csv","xpyriment","Interactive Ising","3.0.2","yes","0","None","NA","space","space","space","/","space","space","None","space","2000","NA","3280","1131","1056","1079","889","6039","2000","1844","legacy","500","experiment","999","odd","NA","NA","NA","324167","NA","NA","NA","NA","NA","320878","404037","NA","NA","NA","70455","405742","404208","NA","70455","406743","406748","390853","399172","383567","66279","67417","68479","69563","60234","9635","407248","407253","390858","399177","383574","407254","409365","400200","409260","409466","58336","404037","NA","NA","NA","324167","9461","Hommel2002EXP01","8","10271","11","yes","1024"
"n","no","yes","circle","75","75","918","918","black","no","xpyriment","legacy","green","blue","red","yellow","legacy","0","uniform","1","1","z","1","NA","NA","2","NA","NA","NA","NA","2","0","43","0","0","0","0","43","43","0","0","43","43","43","43","43","0","0","0","0","0","0","43","43","43","43","43","43","43","43","43","43","0","43","NA","NA","NA","2","0","12/30/15 00:31:36","Default description","no","chinese-japanese-korean","no","18","white","開始實驗B","768","legacy","C:\Users\Evonne\Desktop\test\Compatibility\0_preview\quickrun.csv","xpyriment","Interactive Ising","3.0.2","yes","0","z","NA","space","space","space","/","space","space","z","space","748","NA","3280","1131","1056","1079","889","6039","748","1844","legacy","0","experiment","999","odd","NA","NA","NA","324167","NA","NA","NA","NA","NA","320878","413031","NA","NA","NA","70455","414701","413162","NA","70455","415702","406748","415706","399172","383567","66279","67417","68479","69563","60234","9635","415708","407253","415712","399177","383574","415713","409365","416469","409260","416570","58336","413031","NA","NA","NA","324167","9461","Hommel2002EXP01","9","11019","12","yes","1024"
"n","no","yes","circle","76.9230769231","76.9230769231","898","898","black","no","xpyriment","legacy","green","yellow","red","blue","legacy","0","uniform","1","1","z","1","NA","NA","2","NA","NA","NA","NA","2","0","44","0","0","0","0","44","44","0","0","44","44","44","44","44","0","0","0","0","0","0","44","44","44","44","44","44","44","44","44","44","0","44","NA","NA","NA","2","0","12/30/15 00:31:36","Default description","no","chinese-japanese-korean","no","18","white","開始實驗B","768","legacy","C:\Users\Evonne\Desktop\test\Compatibility\0_preview\quickrun.csv","xpyriment","Interactive Ising","3.0.2","yes","0","z","NA","space","space","space","/","space","space","z","space","657","NA","3280","1131","1056","1079","889","6039","657","1844","legacy","500","experiment","999","odd","NA","NA","NA","324167","NA","NA","NA","NA","NA","320878","420477","NA","NA","NA","70455","422143","420607","NA","70455","423143","406748","423153","399172","383567","66279","67417","68479","69563","60234","9635","423654","407253","423658","399177","383574","423659","409365","424329","409260","424429","58336","420477","NA","NA","NA","324167","9461","Hommel2002EXP01","10","11676","13","yes","1024"
"y","no","yes","circle","78.5714285714","78.5714285714","893","893","black","no","xpyriment","legacy","blue","green","red","yellow","legacy","0","uniform","1","1","z","1","NA","NA","2","NA","NA","NA","NA","2","0","45","0","0","0","0","45","45","0","0","45","45","45","45","45","0","0","0","0","0","0","45","45","45","45","45","45","45","45","45","45","0","45","NA","NA","NA","2","0","12/30/15 00:31:36","Default description","no","chinese-japanese-korean","no","18","white","開始實驗B","768","legacy","C:\Users\Evonne\Desktop\test\Compatibility\0_preview\quickrun.csv","xpyriment","Interactive Ising","3.0.2","yes","0","z","NA","space","space","space","/","space","space","z","space","836","NA","3280","1131","1056","1079","889","6039","836","1844","legacy","0","experiment","999","odd","NA","NA","NA","324167","NA","NA","NA","NA","NA","320878","428279","NA","NA","NA","70455","429945","428407","NA","70455","430946","430951","423153","399172","383567","66279","67417","68479","69563","60234","9635","430952","430957","423658","399177","383574","430958","409365","431800","409260","431901","58336","428278","NA","NA","NA","324167","9461","Hommel2002EXP01","11","12512","14","yes","1024"
"y","no","yes","rect","80","80","882","882","black","no","xpyriment","legacy","blue","yellow","red","green","legacy","0","uniform","1","1","/","1","NA","NA","2","NA","NA","NA","NA","2","0","46","0","0","0","0","46","46","0","0","46","46","46","46","46","0","0","0","0","0","0","46","46","46","46","46","46","46","46","46","46","0","46","NA","NA","NA","2","0","12/30/15 00:31:36","Default description","no","chinese-japanese-korean","no","18","white","開始實驗B","768","legacy","C:\Users\Evonne\Desktop\test\Compatibility\0_preview\quickrun.csv","xpyriment","Interactive Ising","3.0.2","yes","0","/","NA","space","space","space","/","space","space","/","space","723","NA","3280","1131","1056","1079","889","6039","723","1844","legacy","0","experiment","999","odd","NA","NA","NA","324167","NA","NA","NA","NA","NA","320878","435815","NA","NA","NA","70455","437516","435982","NA","70455","438516","430951","423153","438520","383567","66279","67417","68479","69563","60234","9635","438521","430957","423658","438525","383574","438526","409365","439256","409260","439357","58336","435814","NA","NA","NA","324167","9461","Hommel2002EXP01","12","13235","15","yes","1024"
"y","no","yes","circle","81.25","81.25","873","873","black","no","xpyriment","legacy","green","yellow","red","blue","legacy","0","uniform","1","1","z","1","NA","NA","2","NA","NA","NA","NA","2","0","47","0","0","0","0","47","47","0","0","47","47","47","47","47","0","0","0","0","0","0","47","47","47","47","47","47","47","47","47","47","0","47","NA","NA","NA","2","0","12/30/15 00:31:36","Default description","no","chinese-japanese-korean","no","18","white","開始實驗B","768","legacy","C:\Users\Evonne\Desktop\test\Compatibility\0_preview\quickrun.csv","xpyriment","Interactive Ising","3.0.2","yes","0","z","NA","space","space","space","/","space","space","z","space","740","NA","3280","1131","1056","1079","889","6039","740","1844","legacy","0","experiment","999","odd","NA","NA","NA","324167","NA","NA","NA","NA","NA","320878","443505","NA","NA","NA","70455","445242","443710","NA","70455","446242","446246","423153","438520","383567","66279","67417","68479","69563","60234","9635","446247","446251","423658","438525","383574","446252","409365","446999","409260","447101","58336","443505","NA","NA","NA","324167","9461","Hommel2002EXP01","13","13975","16","yes","1024"
"y","no","yes","rect","100","100","651","651","black","no","xpyriment","legacy","green","yellow","red","blue","legacy","0","uniform","1","1","/","1","NA","NA","3","NA","NA","NA","NA","3","0","48","0","0","0","0","48","48","0","0","48","48","48","48","48","0","0","0","0","0","0","48","48","48","48","48","48","48","48","48","48","0","48","NA","NA","NA","3","0","12/30/15 00:31:36","Default description","no","chinese-japanese-korean","no","18","white","開始實驗B","768","legacy","C:\Users\Evonne\Desktop\test\Compatibility\0_preview\quickrun.csv","xpyriment","Interactive Ising","3.0.2","","0","/","NA","space","space","space","/","space","space","/","space","651","NA","3280","1131","1056","1079","889","6039","651","1844","legacy","0","experiment","999","odd","NA","NA","NA","447189","NA","NA","NA","NA","NA","320878","450986","NA","NA","NA","70455","452748","451212","NA","70455","453749","446246","423153","453754","383567","66279","67417","68479","69563","60234","9635","453755","446251","423658","453760","383574","453761","409365","454418","409260","454519","58336","450986","NA","NA","NA","447191","9461","Hommel2002EXP01","1","651","1","yes","1024"
"n","no","yes","rect","100","100","695","695","black","no","xpyriment","legacy","red","blue","yellow","green","legacy","0","uniform","1","1","/","1","NA","NA","3","NA","NA","NA","NA","3","0","49","0","0","0","0","49","49","0","0","49","49","49","49","49","0","0","0","0","0","0","49","49","49","49","49","49","49","49","49","49","0","49","NA","NA","NA","3","0","12/30/15 00:31:36","Default description","no","chinese-japanese-korean","no","18","white","開始實驗B","768","legacy","C:\Users\Evonne\Desktop\test\Compatibility\0_preview\quickrun.csv","xpyriment","Interactive Ising","3.0.2","","0","/","NA","space","space","space","/","space","space","/","space","740","NA","3280","1131","1056","1079","889","6039","740","1844","legacy","500","experiment","999","odd","NA","NA","NA","447189","NA","NA","NA","NA","NA","320878","458119","NA","NA","NA","70455","459852","458319","NA","70455","460853","446246","423153","453754","460857","66279","67417","68479","69563","60234","9635","461358","446251","423658","453760","461362","461363","409365","462109","409260","462211","58336","458118","NA","NA","NA","447191","9461","Hommel2002EXP01","2","1391","2","yes","1024"
"n","no","yes","circle","100","100","759","759","black","no","xpyriment","legacy","yellow","green","blue","red","legacy","0","uniform","1","1","z","1","NA","NA","3","NA","NA","NA","NA","3","0","50","0","0","0","0","50","50","0","0","50","50","50","50","50","0","0","0","0","0","0","50","50","50","50","50","50","50","50","50","50","0","50","NA","NA","NA","3","0","12/30/15 00:31:36","Default description","no","chinese-japanese-korean","no","18","white","開始實驗B","768","legacy","C:\Users\Evonne\Desktop\test\Compatibility\0_preview\quickrun.csv","xpyriment","Interactive Ising","3.0.2","","0","z","NA","space","space","space","/","space","space","z","space","886","NA","3280","1131","1056","1079","889","6039","886","1844","legacy","0","experiment","999","odd","NA","NA","NA","447189","NA","NA","NA","NA","NA","320878","465888","NA","NA","NA","70455","467572","466040","NA","70455","468573","446246","468578","453754","460857","66279","67417","68479","69563","60234","9635","468579","446251","468584","453760","461362","468585","409365","469478","409260","469578","58336","465887","NA","NA","NA","447191","9461","Hommel2002EXP01","3","2277","3","yes","1024"
"n","no","yes","circle","100","100","725","725","black","no","xpyriment","legacy","yellow","green","red","blue","legacy","0","uniform","1","1","z","1","NA","NA","3","NA","NA","NA","NA","3","0","51","0","0","0","0","51","51","0","0","51","51","51","51","51","0","0","0","0","0","0","51","51","51","51","51","51","51","51","51","51","0","51","NA","NA","NA","3","0","12/30/15 00:31:36","Default description","no","chinese-japanese-korean","no","18","white","開始實驗B","768","legacy","C:\Users\Evonne\Desktop\test\Compatibility\0_preview\quickrun.csv","xpyriment","Interactive Ising","3.0.2","","0","z","NA","space","space","space","/","space","space","z","space","623","NA","3280","1131","1056","1079","889","6039","623","1844","legacy","0","experiment","999","odd","NA","NA","NA","447189","NA","NA","NA","NA","NA","320878","473484","NA","NA","NA","70455","475170","473637","NA","70455","476171","446246","476176","453754","460857","66279","67417","68479","69563","60234","9635","476177","446251","476181","453760","461362","476182","409365","476814","409260","476915","58336","473483","NA","NA","NA","447191","9461","Hommel2002EXP01","4","2900","4","yes","1024"
"n","no","yes","rect","100","100","742","742","black","no","xpyriment","legacy","green","red","blue","yellow","legacy","0","uniform","1","1","/","1","NA","NA","3","NA","NA","NA","NA","3","0","52","0","0","0","0","52","52","0","0","52","52","52","52","52","0","0","0","0","0","0","52","52","52","52","52","52","52","52","52","52","0","52","NA","NA","NA","3","0","12/30/15 00:31:36","Default description","no","chinese-japanese-korean","no","18","white","開始實驗B","768","legacy","C:\Users\Evonne\Desktop\test\Compatibility\0_preview\quickrun.csv","xpyriment","Interactive Ising","3.0.2","","0","/","NA","space","space","space","/","space","space","/","space","812","NA","3280","1131","1056","1079","889","6039","812","1844","legacy","0","experiment","999","odd","NA","NA","NA","447189","NA","NA","NA","NA","NA","320878","480654","NA","NA","NA","70455","482331","480787","NA","70455","483332","446246","476176","453754","483342","66279","67417","68479","69563","60234","9635","483344","446251","476181","453760","483352","483354","409365","484174","409260","484275","58336","480654","NA","NA","NA","447191","9461","Hommel2002EXP01","5","3712","5","yes","1024"
"n","no","yes","rect","100","100","745","745","black","no","xpyriment","legacy","blue","red","yellow","green","legacy","0","uniform","1","1","/","1","NA","NA","3","NA","NA","NA","NA","3","0","53","0","0","0","0","53","53","0","0","53","53","53","53","53","0","0","0","0","0","0","53","53","53","53","53","53","53","53","53","53","0","53","NA","NA","NA","3","0","12/30/15 00:31:36","Default description","no","chinese-japanese-korean","no","18","white","開始實驗B","768","legacy","C:\Users\Evonne\Desktop\test\Compatibility\0_preview\quickrun.csv","xpyriment","Interactive Ising","3.0.2","","0","/","NA","space","space","space","/","space","space","/","space","760","NA","3280","1131","1056","1079","889","6039","760","1844","legacy","0","experiment","999","odd","NA","NA","NA","447189","NA","NA","NA","NA","NA","320878","487960","NA","NA","NA","70455","489621","488088","NA","70455","490621","446246","476176","453754","490625","66279","67417","68479","69563","60234","9635","490626","446251","476181","453760","490630","490631","409365","491397","409260","491498","58336","487959","NA","NA","NA","447191","9461","Hommel2002EXP01","6","4472","6","yes","1024"
"n","no","yes","rect","100","100","734","734","black","no","xpyriment","legacy","green","red","blue","yellow","legacy","0","uniform","1","1","/","1","NA","NA","3","NA","NA","NA","NA","3","0","54","0","0","0","0","54","54","0","0","54","54","54","54","54","0","0","0","0","0","0","54","54","54","54","54","54","54","54","54","54","0","54","NA","NA","NA","3","0","12/30/15 00:31:36","Default description","no","chinese-japanese-korean","no","18","white","開始實驗B","768","legacy","C:\Users\Evonne\Desktop\test\Compatibility\0_preview\quickrun.csv","xpyriment","Interactive Ising","3.0.2","","0","/","NA","space","space","space","/","space","space","/","space","670","NA","3280","1131","1056","1079","889","6039","670","1844","legacy","500","experiment","999","odd","NA","NA","NA","447189","NA","NA","NA","NA","NA","320878","495013","NA","NA","NA","70455","496724","495196","NA","70455","497725","446246","476176","453754","497730","66279","67417","68479","69563","60234","9635","498230","446251","476181","453760","498234","498235","409365","498912","409260","499012","58336","495013","NA","NA","NA","447191","9461","Hommel2002EXP01","7","5142","7","yes","1024"
"y","no","yes","rect","100","100","717","717","black","no","xpyriment","legacy","yellow","blue","green","red","legacy","0","uniform","1","1","/","1","NA","NA","3","NA","NA","NA","NA","3","0","55","0","0","0","0","55","55","0","0","55","55","55","55","55","0","0","0","0","0","0","55","55","55","55","55","55","55","55","55","55","0","55","NA","NA","NA","3","0","12/30/15 00:31:36","Default description","no","chinese-japanese-korean","no","18","white","開始實驗B","768","legacy","C:\Users\Evonne\Desktop\test\Compatibility\0_preview\quickrun.csv","xpyriment","Interactive Ising","3.0.2","","0","/","NA","space","space","space","/","space","space","/","space","601","NA","3280","1131","1056","1079","889","6039","601","1844","legacy","500","experiment","999","odd","NA","NA","NA","447189","NA","NA","NA","NA","NA","320878","502714","NA","NA","NA","70455","504391","502857","NA","70455","505392","446246","476176","505396","497730","66279","67417","68479","69563","60234","9635","505897","446251","476181","505901","498234","505902","409365","506522","409260","506623","58336","502713","NA","NA","NA","447191","9461","Hommel2002EXP01","8","5743","8","yes","1024"
"y","no","yes","circle","100","100","712","712","black","no","xpyriment","legacy","blue","red","yellow","green","legacy","0","uniform","1","1","z","1","NA","NA","3","NA","NA","NA","NA","3","0","56","0","0","0","0","56","56","0","0","56","56","56","56","56","0","0","0","0","0","0","56","56","56","56","56","56","56","56","56","56","0","56","NA","NA","NA","3","0","12/30/15 00:31:36","Default description","no","chinese-japanese-korean","no","18","white","開始實驗B","768","legacy","C:\Users\Evonne\Desktop\test\Compatibility\0_preview\quickrun.csv","xpyriment","Interactive Ising","3.0.2","","0","z","NA","space","space","space","/","space","space","z","space","665","NA","3280","1131","1056","1079","889","6039","665","1844","legacy","0","experiment","999","odd","NA","NA","NA","447189","NA","NA","NA","NA","NA","320878","510237","NA","NA","NA","70455","511941","510412","NA","70455","512941","512945","476176","505396","497730","66279","67417","68479","69563","60234","9635","512946","512950","476181","505901","498234","512951","409365","513622","409260","513723","58336","510237","NA","NA","NA","447191","9461","Hommel2002EXP01","9","6408","9","yes","1024"
"y","no","yes","circle","100","100","702","702","black","no","xpyriment","legacy","yellow","green","blue","red","legacy","0","uniform","1","1","z","1","NA","NA","3","NA","NA","NA","NA","3","0","57","0","0","0","0","57","57","0","0","57","57","57","57","57","0","0","0","0","0","0","57","57","57","57","57","57","57","57","57","57","0","57","NA","NA","NA","3","0","12/30/15 00:31:36","Default description","no","chinese-japanese-korean","no","18","white","開始實驗B","768","legacy","C:\Users\Evonne\Desktop\test\Compatibility\0_preview\quickrun.csv","xpyriment","Interactive Ising","3.0.2","","0","z","NA","space","space","space","/","space","space","z","space","614","NA","3280","1131","1056","1079","889","6039","614","1844","legacy","500","experiment","999","odd","NA","NA","NA","447189","NA","NA","NA","NA","NA","320878","517704","NA","NA","NA","70455","519515","518011","NA","70455","520515","520519","476176","505396","497730","66279","67417","68479","69563","60234","9635","521020","521025","476181","505901","498234","521025","409365","521656","409260","521757","58336","517703","NA","NA","NA","447191","9461","Hommel2002EXP01","10","7022","10","yes","1024"
"y","no","yes","circle","100","100","706","706","black","no","xpyriment","legacy","yellow","red","green","blue","legacy","0","uniform","1","1","z","1","NA","NA","3","NA","NA","NA","NA","3","0","58","0","0","0","0","58","58","0","0","58","58","58","58","58","0","0","0","0","0","0","58","58","58","58","58","58","58","58","58","58","0","58","NA","NA","NA","3","0","12/30/15 00:31:36","Default description","no","chinese-japanese-korean","no","18","white","開始實驗B","768","legacy","C:\Users\Evonne\Desktop\test\Compatibility\0_preview\quickrun.csv","xpyriment","Interactive Ising","3.0.2","","0","z","NA","space","space","space","/","space","space","z","space","754","NA","3280","1131","1056","1079","889","6039","754","1844","legacy","500","experiment","999","odd","NA","NA","NA","447189","NA","NA","NA","NA","NA","320878","525385","NA","NA","NA","70455","527045","525509","NA","70455","528045","528049","476176","505396","497730","66279","67417","68479","69563","60234","9635","528550","528554","476181","505901","498234","528555","409365","529327","409260","529427","58336","525384","NA","NA","NA","447191","9461","Hommel2002EXP01","11","7776","11","yes","1024"
"y","no","yes","rect","91.6666666667","91.6666666667","702","702","black","no","xpyriment","legacy","red","blue","yellow","green","legacy","0","uniform","0","0","/","1","NA","NA","3","NA","NA","NA","NA","3","0","59","0","0","0","0","59","59","0","0","59","59","59","59","59","0","0","0","0","0","0","59","59","59","59","59","59","59","59","59","59","0","59","NA","NA","NA","3","0","12/30/15 00:31:36","Default description","no","chinese-japanese-korean","no","18","white","開始實驗B","768","legacy","C:\Users\Evonne\Desktop\test\Compatibility\0_preview\quickrun.csv","xpyriment","Interactive Ising","3.0.2","","0","z","NA","space","space","space","/","space","space","z","space","657","NA","3280","1131","1056","1079","889","6039","657","1844","legacy","0","experiment","999","odd","NA","NA","NA","447189","NA","NA","NA","NA","NA","320878","532938","NA","NA","NA","70455","534633","533102","NA","70455","535633","528049","476176","535638","497730","66279","67417","68479","69563","60234","9635","535638","528554","476181","535644","498234","535644","409365","529327","536315","536416","58336","532937","NA","NA","NA","447191","9461","Hommel2002EXP01","11","8433","12","yes","1024"
"n","no","yes","circle","92.3076923077","92.3076923077","702","702","black","no","xpyriment","legacy","blue","red","green","yellow","legacy","0","uniform","1","1","z","1","NA","NA","3","NA","NA","NA","NA","3","0","60","0","0","0","0","60","60","0","0","60","60","60","60","60","0","0","0","0","0","0","60","60","60","60","60","60","60","60","60","60","0","60","NA","NA","NA","3","0","12/30/15 00:31:36","Default description","no","chinese-japanese-korean","no","18","white","開始實驗B","768","legacy","C:\Users\Evonne\Desktop\test\Compatibility\0_preview\quickrun.csv","xpyriment","Interactive Ising","3.0.2","","0","z","NA","space","space","space","/","space","space","z","space","702","NA","3280","1131","1056","1079","889","6039","702","1844","legacy","500","experiment","999","odd","NA","NA","NA","447189","NA","NA","NA","NA","NA","320878","540127","NA","NA","NA","70455","541791","540260","NA","70455","542792","528049","542796","535638","497730","66279","67417","68479","69563","60234","9635","543297","528554","543302","535644","498234","543303","409365","544012","536315","544113","58336","540126","NA","NA","NA","447191","9461","Hommel2002EXP01","12","9135","13","yes","1024"
"y","no","yes","circle","92.8571428571","92.8571428571","702","702","black","no","xpyriment","legacy","blue","yellow","red","green","legacy","0","uniform","1","1","z","1","NA","NA","3","NA","NA","NA","NA","3","0","61","0","0","0","0","61","61","0","0","61","61","61","61","61","0","0","0","0","0","0","61","61","61","61","61","61","61","61","61","61","0","61","NA","NA","NA","3","0","12/30/15 00:31:36","Default description","no","chinese-japanese-korean","no","18","white","開始實驗B","768","legacy","C:\Users\Evonne\Desktop\test\Compatibility\0_preview\quickrun.csv","xpyriment","Interactive Ising","3.0.2","","0","z","NA","space","space","space","/","space","space","z","space","699","NA","3280","1131","1056","1079","889","6039","699","1844","legacy","0","experiment","999","odd","NA","NA","NA","447189","NA","NA","NA","NA","NA","320878","547983","NA","NA","NA","70455","549731","548188","NA","70455","550732","550738","542796","535638","497730","66279","67417","68479","69563","60234","9635","550739","550744","543302","535644","498234","550744","409365","551461","536315","551562","58336","547982","NA","NA","NA","447191","9461","Hommel2002EXP01","13","9834","14","yes","1024"
"n","no","yes","circle","86.6666666667","86.6666666667","720","720","black","no","xpyriment","legacy","red","green","blue","yellow","legacy","0","uniform","0","0","z","1","NA","NA","3","NA","NA","NA","NA","3","0","62","0","0","0","0","62","62","0","0","62","62","62","62","62","0","0","0","0","0","0","62","62","62","62","62","62","62","62","62","62","0","62","NA","NA","NA","3","0","12/30/15 00:31:36","Default description","no","chinese-japanese-korean","no","18","white","開始實驗B","768","legacy","C:\Users\Evonne\Desktop\test\Compatibility\0_preview\quickrun.csv","xpyriment","Interactive Ising","3.0.2","","0","/","NA","space","space","space","/","space","space","/","space","966","NA","3280","1131","1056","1079","889","6039","966","1844","legacy","500","experiment","999","odd","NA","NA","NA","447189","NA","NA","NA","NA","NA","320878","555397","NA","NA","NA","70455","557129","555589","NA","70455","558129","550738","558134","535638","497730","66279","67417","68479","69563","60234","9635","558636","550744","558641","535644","498234","558643","409365","551461","559622","559723","58336","555396","NA","NA","NA","447191","9461","Hommel2002EXP01","13","10800","15","yes","1024"
"y","no","yes","rect","87.5","87.5","726","726","black","no","xpyriment","legacy","red","yellow","blue","green","legacy","0","uniform","1","1","/","1","NA","NA","3","NA","NA","NA","NA","3","0","63","0","0","0","0","63","63","0","0","63","63","63","63","63","0","0","0","0","0","0","63","63","63","63","63","63","63","63","63","63","0","63","NA","NA","NA","3","0","12/30/15 00:31:36","Default description","no","chinese-japanese-korean","no","18","white","開始實驗B","768","legacy","C:\Users\Evonne\Desktop\test\Compatibility\0_preview\quickrun.csv","xpyriment","Interactive Ising","3.0.2","","0","/","NA","space","space","space","/","space","space","/","space","819","NA","3280","1131","1056","1079","889","6039","819","1844","legacy","500","experiment","999","odd","NA","NA","NA","447189","NA","NA","NA","NA","NA","320878","564056","NA","NA","NA","70455","565732","564194","NA","70455","566733","550738","558134","566739","497730","66279","67417","68479","69563","60234","9635","567240","550744","558641","567244","498234","567245","409365","568072","559622","568172","58336","564056","NA","NA","NA","447191","9461","Hommel2002EXP01","14","11619","16","yes","1024"
"y","no","yes","rect","100","100","630","630","black","no","xpyriment","legacy","red","green","yellow","blue","legacy","0","uniform","1","1","/","1","NA","0","3","NA","NA","0","NA","3","1","64","0","0","0","0","64","64","0","0","64","64","64","64","64","0","0","0","0","0","0","64","64","64","64","64","64","64","64","64","64","0","64","NA","0","NA","3","0","12/30/15 00:31:36","Default description","no","chinese-japanese-korean","no","18","white","開始實驗B","768","legacy","C:\Users\Evonne\Desktop\test\Compatibility\0_preview\quickrun.csv","xpyriment","Interactive Ising","3.0.2","","0","/","space","space","space","space","/","space","space","/","space","630","3612","9373","1131","1056","1079","889","6039","630","1844","legacy","500","experiment","999","odd","578098","NA","581722","447189","NA","NA","NA","NA","NA","568690","585446","NA","581712","NA","70455","587190","585656","NA","70455","588191","550738","558134","588196","497730","66279","67417","68479","69563","60234","9635","588696","550744","558641","588700","498234","588701","409365","589338","559622","589438","58336","585445","NA","581722","NA","447191","9461","Hommel2002EXP01","1","630","1","yes","1024"
"y","no","yes","rect","100","100","638","638","black","no","xpyriment","legacy","yellow","green","red","blue","legacy","0","uniform","1","1","/","1","NA","0","3","NA","NA","0","NA","3","1","65","0","0","0","0","65","65","0","0","65","65","65","65","65","0","0","0","0","0","0","65","65","65","65","65","65","65","65","65","65","0","65","NA","0","NA","3","0","12/30/15 00:31:36","Default description","no","chinese-japanese-korean","no","18","white","開始實驗B","768","legacy","C:\Users\Evonne\Desktop\test\Compatibility\0_preview\quickrun.csv","xpyriment","Interactive Ising","3.0.2","","0","/","space","space","space","space","/","space","space","/","space","646","3612","9373","1131","1056","1079","889","6039","646","1844","legacy","250","experiment","999","odd","578098","NA","581722","447189","NA","NA","NA","NA","NA","568690","593042","NA","581712","NA","70455","594769","593240","NA","70455","595769","550738","558134","595774","497730","66279","67417","68479","69563","60234","9635","596024","550744","558641","596030","498234","596031","409365","596684","559622","596785","58336","593041","NA","581722","NA","447191","9461","Hommel2002EXP01","2","1276","2","yes","1024"
"n","no","yes","circle","100","100","646","646","black","no","xpyriment","legacy","yellow","red","green","blue","legacy","0","uniform","1","1","z","1","NA","0","3","NA","NA","0","NA","3","1","66","0","0","0","0","66","66","0","0","66","66","66","66","66","0","0","0","0","0","0","66","66","66","66","66","66","66","66","66","66","0","66","NA","0","NA","3","0","12/30/15 00:31:36","Default description","no","chinese-japanese-korean","no","18","white","開始實驗B","768","legacy","C:\Users\Evonne\Desktop\test\Compatibility\0_preview\quickrun.csv","xpyriment","Interactive Ising","3.0.2","","0","z","space","space","space","space","/","space","space","z","space","664","3612","9373","1131","1056","1079","889","6039","664","1844","legacy","500","experiment","999","odd","578098","NA","581722","447189","NA","NA","NA","NA","NA","568690","600566","NA","581712","NA","70455","602253","600717","NA","70455","603253","550738","603257","595774","497730","66279","67417","68479","69563","60234","9635","603758","550744","603767","596030","498234","603769","409365","604441","559622","604541","58336","600566","NA","581722","NA","447191","9461","Hommel2002EXP01","3","1940","3","yes","1024"
"n","no","yes","rect","100","100","776","776","black","no","xpyriment","legacy","blue","red","green","yellow","legacy","0","uniform","1","1","/","1","NA","0","3","NA","NA","0","NA","3","1","67","0","0","0","0","67","67","0","0","67","67","67","67","67","0","0","0","0","0","0","67","67","67","67","67","67","67","67","67","67","0","67","NA","0","NA","3","0","12/30/15 00:31:36","Default description","no","chinese-japanese-korean","no","18","white","開始實驗B","768","legacy","C:\Users\Evonne\Desktop\test\Compatibility\0_preview\quickrun.csv","xpyriment","Interactive Ising","3.0.2","","0","/","space","space","space","space","/","space","space","/","space","1164","3612","9373","1131","1056","1079","889","6039","1164","1844","legacy","0","experiment","999","odd","578098","NA","581722","447189","NA","NA","NA","NA","NA","568690","608290","NA","581712","NA","70455","609985","608449","NA","70455","610986","550738","603257","595774","610990","66279","67417","68479","69563","60234","9635","610991","550744","603767","596030","610995","610996","409365","612167","559622","612268","58336","608289","NA","581722","NA","447191","9461","Hommel2002EXP01","4","3104","4","yes","1024"
"n","no","yes","circle","100","100","750","750","black","no","xpyriment","legacy","yellow","green","red","blue","legacy","0","uniform","1","1","z","1","NA","0","3","NA","NA","0","NA","3","1","68","0","0","0","0","68","68","0","0","68","68","68","68","68","0","0","0","0","0","0","68","68","68","68","68","68","68","68","68","68","0","68","NA","0","NA","3","0","12/30/15 00:31:36","Default description","no","chinese-japanese-korean","no","18","white","開始實驗B","768","legacy","C:\Users\Evonne\Desktop\test\Compatibility\0_preview\quickrun.csv","xpyriment","Interactive Ising","3.0.2","","0","z","space","space","space","space","/","space","space","z","space","647","3612","9373","1131","1056","1079","889","6039","647","1844","legacy","250","experiment","999","odd","578098","NA","581722","447189","NA","NA","NA","NA","NA","568690","615935","NA","581712","NA","70455","617642","616112","NA","70455","618643","550738","618648","595774","610990","66279","67417","68479","69563","60234","9635","618898","550744","618902","596030","610995","618903","409365","619557","559622","619657","58336","615935","NA","581722","NA","447191","9461","Hommel2002EXP01","5","3751","5","yes","1024"
"y","no","yes","rect","100","100","723","723","black","no","xpyriment","legacy","red","green","yellow","blue","legacy","0","uniform","1","1","/","1","NA","0","3","NA","NA","0","NA","3","1","69","0","0","0","0","69","69","0","0","69","69","69","69","69","0","0","0","0","0","0","69","69","69","69","69","69","69","69","69","69","0","69","NA","0","NA","3","0","12/30/15 00:31:36","Default description","no","chinese-japanese-korean","no","18","white","開始實驗B","768","legacy","C:\Users\Evonne\Desktop\test\Compatibility\0_preview\quickrun.csv","xpyriment","Interactive Ising","3.0.2","","0","/","space","space","space","space","/","space","space","/","space","591","3612","9373","1131","1056","1079","889","6039","591","1844","legacy","0","experiment","999","odd","578098","NA","581722","447189","NA","NA","NA","NA","NA","568690","623411","NA","581712","NA","70455","625179","623643","NA","70455","626179","550738","618648","626183","610990","66279","67417","68479","69563","60234","9635","626184","550744","618902","626188","610995","626189","409365","626787","559622","626887","58336","623411","NA","581722","NA","447191","9461","Hommel2002EXP01","6","4342","6","yes","1024"
"n","no","yes","rect","100","100","706","706","black","no","xpyriment","legacy","yellow","blue","green","red","legacy","0","uniform","1","1","/","1","NA","0","3","NA","NA","0","NA","3","1","70","0","0","0","0","70","70","0","0","70","70","70","70","70","0","0","0","0","0","0","70","70","70","70","70","70","70","70","70","70","0","70","NA","0","NA","3","0","12/30/15 00:31:36","Default description","no","chinese-japanese-korean","no","18","white","開始實驗B","768","legacy","C:\Users\Evonne\Desktop\test\Compatibility\0_preview\quickrun.csv","xpyriment","Interactive Ising","3.0.2","","0","/","space","space","space","space","/","space","space","/","space","603","3612","9373","1131","1056","1079","889","6039","603","1844","legacy","500","experiment","999","odd","578098","NA","581722","447189","NA","NA","NA","NA","NA","568690","630503","NA","581712","NA","70455","632237","630700","NA","70455","633238","550738","618648","626183","633243","66279","67417","68479","69563","60234","9635","633743","550744","618902","626188","633753","633754","409365","634366","559622","634466","58336","630502","NA","581722","NA","447191","9461","Hommel2002EXP01","7","4945","7","yes","1024"
"y","no","yes","circle","100","100","706","706","black","no","xpyriment","legacy","green","yellow","blue","red","legacy","0","uniform","1","1","z","1","NA","0","3","NA","NA","0","NA","3","1","71","0","0","0","0","71","71","0","0","71","71","71","71","71","0","0","0","0","0","0","71","71","71","71","71","71","71","71","71","71","0","71","NA","0","NA","3","0","12/30/15 00:31:36","Default description","no","chinese-japanese-korean","no","18","white","開始實驗B","768","legacy","C:\Users\Evonne\Desktop\test\Compatibility\0_preview\quickrun.csv","xpyriment","Interactive Ising","3.0.2","","0","z","space","space","space","space","/","space","space","z","space","710","3612","9373","1131","1056","1079","889","6039","710","1844","legacy","500","experiment","999","odd","578098","NA","581722","447189","NA","NA","NA","NA","NA","568690","638093","NA","581712","NA","70455","639853","638315","NA","70455","640853","640857","618648","626183","633243","66279","67417","68479","69563","60234","9635","641358","641363","618902","626188","633753","641364","409365","642090","559622","642191","58336","638092","NA","581722","NA","447191","9461","Hommel2002EXP01","8","5655","8","yes","1024"
"n","no","yes","rect","100","100","701","701","black","no","xpyriment","legacy","red","blue","yellow","green","legacy","0","uniform","1","1","/","1","NA","0","3","NA","NA","0","NA","3","1","72","0","0","0","0","72","72","0","0","72","72","72","72","72","0","0","0","0","0","0","72","72","72","72","72","72","72","72","72","72","0","72","NA","0","NA","3","0","12/30/15 00:31:36","Default description","no","chinese-japanese-korean","no","18","white","開始實驗B","768","legacy","C:\Users\Evonne\Desktop\test\Compatibility\0_preview\quickrun.csv","xpyriment","Interactive Ising","3.0.2","","0","/","space","space","space","space","/","space","space","/","space","661","3612","9373","1131","1056","1079","889","6039","661","1844","legacy","250","experiment","999","odd","578098","NA","581722","447189","NA","NA","NA","NA","NA","568690","645591","NA","581712","NA","70455","647362","645824","NA","70455","648363","640857","618648","626183","648369","66279","67417","68479","69563","60234","9635","648619","641363","618902","626188","648625","648626","409365","649296","559622","649397","58336","645590","NA","581722","NA","447191","9461","Hommel2002EXP01","9","6316","9","yes","1024"
"n","no","yes","rect","100","100","703","703","black","no","xpyriment","legacy","green","blue","yellow","red","legacy","0","uniform","1","1","/","1","NA","0","3","NA","NA","0","NA","3","1","73","0","0","0","0","73","73","0","0","73","73","73","73","73","0","0","0","0","0","0","73","73","73","73","73","73","73","73","73","73","0","73","NA","0","NA","3","0","12/30/15 00:31:36","Default description","no","chinese-japanese-korean","no","18","white","開始實驗B","768","legacy","C:\Users\Evonne\Desktop\test\Compatibility\0_preview\quickrun.csv","xpyriment","Interactive Ising","3.0.2","","0","/","space","space","space","space","/","space","space","/","space","721","3612","9373","1131","1056","1079","889","6039","721","1844","legacy","0","experiment","999","odd","578098","NA","581722","447189","NA","NA","NA","NA","NA","568690","653192","NA","581712","NA","70455","654927","653389","NA","70455","655928","640857","618648","626183","655933","66279","67417","68479","69563","60234","9635","655934","641363","618902","626188","655938","655939","409365","656669","559622","656769","58336","653191","NA","581722","NA","447191","9461","Hommel2002EXP01","10","7037","10","yes","1024"
"n","no","yes","circle","90.9090909091","90.9090909091","700","700","black","no","xpyriment","legacy","green","red","blue","yellow","legacy","0","uniform","0","0","z","1","NA","0","3","NA","NA","0","NA","3","1","74","0","0","0","0","74","74","0","0","74","74","74","74","74","0","0","0","0","0","0","74","74","74","74","74","74","74","74","74","74","0","74","NA","0","NA","3","0","12/30/15 00:31:36","Default description","no","chinese-japanese-korean","no","18","white","開始實驗B","768","legacy","C:\Users\Evonne\Desktop\test\Compatibility\0_preview\quickrun.csv","xpyriment","Interactive Ising","3.0.2","","0","/","space","space","space","space","/","space","space","/","space","664","3612","9373","1131","1056","1079","889","6039","664","1844","legacy","0","experiment","999","odd","578098","NA","581722","447189","NA","NA","NA","NA","NA","568690","660544","NA","581712","NA","70455","662207","660671","NA","70455","663207","640857","663213","626183","655933","66279","67417","68479","69563","60234","9635","663213","641363","663218","626188","655938","663219","409365","656669","663892","663992","58336","660544","NA","581722","NA","447191","9461","Hommel2002EXP01","10","7701","11","yes","1024"
"y","no","yes","rect","91.6666666667","91.6666666667","710","710","black","no","xpyriment","legacy","red","yellow","blue","green","legacy","0","uniform","1","1","/","1","NA","0","3","NA","NA","0","NA","3","1","75","0","0","0","0","75","75","0","0","75","75","75","75","75","0","0","0","0","0","0","75","75","75","75","75","75","75","75","75","75","0","75","NA","0","NA","3","0","12/30/15 00:31:36","Default description","no","chinese-japanese-korean","no","18","white","開始實驗B","768","legacy","C:\Users\Evonne\Desktop\test\Compatibility\0_preview\quickrun.csv","xpyriment","Interactive Ising","3.0.2","","0","/","space","space","space","space","/","space","space","/","space","824","3612","9373","1131","1056","1079","889","6039","824","1844","legacy","250","experiment","999","odd","578098","NA","581722","447189","NA","NA","NA","NA","NA","568690","667961","NA","581712","NA","70455","669641","668106","NA","70455","670641","640857","663213","670646","655933","66279","67417","68479","69563","60234","9635","670896","641363","663218","670900","655938","670901","409365","671742","663892","671842","58336","667960","NA","581722","NA","447191","9461","Hommel2002EXP01","11","8525","12","yes","1024"
"y","no","yes","circle","92.3076923077","92.3076923077","753","753","black","no","xpyriment","legacy","blue","red","yellow","green","legacy","0","uniform","1","1","z","1","NA","0","3","NA","NA","0","NA","3","1","76","0","0","0","0","76","76","0","0","76","76","76","76","76","0","0","0","0","0","0","76","76","76","76","76","76","76","76","76","76","0","76","NA","0","NA","3","0","12/30/15 00:31:36","Default description","no","chinese-japanese-korean","no","18","white","開始實驗B","768","legacy","C:\Users\Evonne\Desktop\test\Compatibility\0_preview\quickrun.csv","xpyriment","Interactive Ising","3.0.2","","0","z","space","space","space","space","/","space","space","z","space","1276","3612","9373","1131","1056","1079","889","6039","1276","1844","legacy","0","experiment","999","odd","578098","NA","581722","447189","NA","NA","NA","NA","NA","568690","675528","NA","581712","NA","70455","677194","675660","NA","70455","678194","678198","663213","670646","655933","66279","67417","68479","69563","60234","9635","678199","678204","663218","670900","655938","678205","409365","679490","663892","679591","58336","675527","NA","581722","NA","447191","9461","Hommel2002EXP01","12","9801","13","yes","1024"
"y","no","yes","rect","92.8571428571","92.8571428571","744","744","black","no","xpyriment","legacy","yellow","blue","green","red","legacy","0","uniform","1","1","/","1","NA","0","3","NA","NA","0","NA","3","1","77","0","0","0","0","77","77","0","0","77","77","77","77","77","0","0","0","0","0","0","77","77","77","77","77","77","77","77","77","77","0","77","NA","0","NA","3","0","12/30/15 00:31:36","Default description","no","chinese-japanese-korean","no","18","white","開始實驗B","768","legacy","C:\Users\Evonne\Desktop\test\Compatibility\0_preview\quickrun.csv","xpyriment","Interactive Ising","3.0.2","","0","/","space","space","space","space","/","space","space","/","space","624","3612","9373","1131","1056","1079","889","6039","624","1844","legacy","0","experiment","999","odd","578098","NA","581722","447189","NA","NA","NA","NA","NA","568690","683393","NA","581712","NA","70455","685093","683560","NA","70455","686094","678198","663213","686098","655933","66279","67417","68479","69563","60234","9635","686099","678204","663218","686103","655938","686103","409365","686735","663892","686836","58336","683392","NA","581722","NA","447191","9461","Hommel2002EXP01","13","10425","14","yes","1024"
"y","no","yes","circle","93.3333333333","93.3333333333","741","741","black","no","xpyriment","legacy","blue","green","yellow","red","legacy","0","uniform","1","1","z","1","NA","0","3","NA","NA","0","NA","3","1","78","0","0","0","0","78","78","0","0","78","78","78","78","78","0","0","0","0","0","0","78","78","78","78","78","78","78","78","78","78","0","78","NA","0","NA","3","0","12/30/15 00:31:36","Default description","no","chinese-japanese-korean","no","18","white","開始實驗B","768","legacy","C:\Users\Evonne\Desktop\test\Compatibility\0_preview\quickrun.csv","xpyriment","Interactive Ising","3.0.2","","0","z","space","space","space","space","/","space","space","z","space","703","3612","9373","1131","1056","1079","889","6039","703","1844","legacy","250","experiment","999","odd","578098","NA","581722","447189","NA","NA","NA","NA","NA","568690","690745","NA","581712","NA","70455","692514","690976","NA","70455","693515","693519","663213","686098","655933","66279","67417","68479","69563","60234","9635","693770","693775","663218","686103","655938","693775","409365","694484","663892","694585","58336","690744","NA","581722","NA","447191","9461","Hommel2002EXP01","14","11128","15","yes","1024"
"n","no","yes","rect","93.75","93.75","732","732","black","no","xpyriment","legacy","red","blue","yellow","green","legacy","0","uniform","1","1","/","1","NA","0","3","NA","NA","0","NA","3","1","79","0","0","0","0","79","79","0","0","79","79","79","79","79","0","0","0","0","0","0","79","79","79","79","79","79","79","79","79","79","0","79","NA","0","NA","3","0","12/30/15 00:31:36","Default description","no","chinese-japanese-korean","no","18","white","開始實驗B","768","legacy","C:\Users\Evonne\Desktop\test\Compatibility\0_preview\quickrun.csv","xpyriment","Interactive Ising","3.0.2","","0","/","space","space","space","space","/","space","space","/","space","593","3612","9373","1131","1056","1079","889","6039","593","1844","legacy","500","experiment","999","odd","578098","NA","581722","447189","NA","NA","NA","NA","NA","568690","698410","NA","581712","NA","70455","700293","698788","NA","70455","701293","693519","663213","686098","701299","66279","67417","68479","69563","60234","9635","701799","693775","663218","686103","701804","701804","409365","702405","663892","702505","58336","698410","NA","581722","NA","447191","9461","Hommel2002EXP01","15","11721","16","yes","1024"
"n","no","yes","circle","94.1176470588","94.1176470588","727","727","black","no","xpyriment","legacy","yellow","red","blue","green","legacy","0","uniform","1","1","z","1","NA","0","3","NA","NA","0","NA","3","1","80","0","0","0","0","80","80","0","0","80","80","80","80","80","0","0","0","0","0","0","80","80","80","80","80","80","80","80","80","80","0","80","NA","0","NA","3","0","12/30/15 00:31:36","Default description","no","chinese-japanese-korean","no","18","white","開始實驗B","768","legacy","C:\Users\Evonne\Desktop\test\Compatibility\0_preview\quickrun.csv","xpyriment","Interactive Ising","3.0.2","","0","z","space","space","space","space","/","space","space","z","space","641","3612","9373","1131","1056","1079","889","6039","641","1844","legacy","500","experiment","999","odd","578098","NA","581722","447189","NA","NA","NA","NA","NA","568690","705977","NA","581712","NA","70455","707638","706101","NA","70455","708639","693519","708643","686098","701299","66279","67417","68479","69563","60234","9635","709143","693775","709147","686103","701804","709148","409365","709796","663892","709896","58336","705976","NA","581722","NA","447191","9461","Hommel2002EXP01","16","12362","17","yes","1024"
"y","no","yes","rect","94.4444444444","94.4444444444","721","721","black","no","xpyriment","legacy","blue","red","green","yellow","legacy","0","uniform","1","1","/","1","NA","0","3","NA","NA","0","NA","3","1","81","0","0","0","0","81","81","0","0","81","81","81","81","81","0","0","0","0","0","0","81","81","81","81","81","81","81","81","81","81","0","81","NA","0","NA","3","0","12/30/15 00:31:36","Default description","no","chinese-japanese-korean","no","18","white","開始實驗B","768","legacy","C:\Users\Evonne\Desktop\test\Compatibility\0_preview\quickrun.csv","xpyriment","Interactive Ising","3.0.2","","0","/","space","space","space","space","/","space","space","/","space","616","3612","9373","1131","1056","1079","889","6039","616","1844","legacy","500","experiment","999","odd","578098","NA","581722","447189","NA","NA","NA","NA","NA","568690","713595","NA","581712","NA","70455","715274","713741","NA","70455","716275","693519","708643","716288","701299","66279","67417","68479","69563","60234","9635","716789","693775","709147","716794","701804","716795","409365","717430","663892","717531","58336","713594","NA","581722","NA","447191","9461","Hommel2002EXP01","17","12978","18","yes","1024"
"n","no","yes","rect","89.4736842105","89.4736842105","720","720","black","no","xpyriment","legacy","green","red","blue","yellow","legacy","0","uniform","0","0","/","1","NA","0","3","NA","NA","0","NA","3","1","82","0","0","0","0","82","82","0","0","82","82","82","82","82","0","0","0","0","0","0","82","82","82","82","82","82","82","82","82","82","0","82","NA","0","NA","3","0","12/30/15 00:31:36","Default description","no","chinese-japanese-korean","no","18","white","開始實驗B","768","legacy","C:\Users\Evonne\Desktop\test\Compatibility\0_preview\quickrun.csv","xpyriment","Interactive Ising","3.0.2","","0","z","space","space","space","space","/","space","space","z","space","703","3612","9373","1131","1056","1079","889","6039","703","1844","legacy","250","experiment","999","odd","578098","NA","581722","447189","NA","NA","NA","NA","NA","568690","721142","NA","581712","NA","70455","722812","721279","NA","70455","723812","693519","708643","716288","723816","66279","67417","68479","69563","60234","9635","724067","693775","709147","716794","724072","724072","409365","717430","724782","724882","58336","721142","NA","581722","NA","447191","9461","Hommel2002EXP01","17","13681","19","yes","1024"
