"Compatibility","EXPA","EXPB","Shape","acc","accuracy","average_response_time","avg_rt","background","bidi","canvas_backend","clock_backend","color1","color2","color3","color4","color_backend","compensation","coordinates","correct","correct_Target_response","correct_response","count_Block_Break","count_Block_EXPERIMENT_A","count_Block_EXPERIMENT_B","count_Block_Parctice_B","count_Block_Practice_A","count_Block_reset_EXPERIMENT_A","count_Block_reset_EXPERIMENT_B","count_Block_reset_Practice_A","count_Block_reset_Practice_B","count_Break","count_Decide_Color","count_EXPERIMENT_A","count_EXPERIMENT_B","count_EXP_A","count_EXP_B","count_Initial","count_Intertrial","count_Practice_A","count_Practice_B","count_Prepare","count_Prepare_circle_compatible","count_Prepare_circle_incompatible","count_Prepare_rect_compatible","count_Prepare_rect_incompatible","count_Procedure_Ins01","count_Procedure_Ins02","count_Procedure_Ins03","count_Ready","count_Response_Ins","count_Select_Experiment","count_Target","count_Target_circle_compatible","count_Target_circle_incompatible","count_Target_rect_compatible","count_Target_rect_incompatible","count_Target_response","count_Target_response_BadResponse","count_Target_response_Correct","count_Target_response_Wrong","count_Target_response_logger","count_Title","count_Trial","count_Trial_EXPERIMENT_A","count_Trial_EXPERIMENT_B","count_Trial_Practice_A","count_Trial_Practice_B","count_experiment","datetime","description","font_bold","font_family","font_italic","font_size","foreground","form_response","height","keyboard_backend","logfile","mouse_backend","opensesame_codename","opensesame_version","practice","repeat_cycle","response","response_Block_Break","response_Break","response_Procedure_Ins01","response_Procedure_Ins02","response_Procedure_Ins03","response_Ready","response_Response_Ins","response_Target_response","response_Title","response_time","response_time_Block_Break","response_time_Break","response_time_Procedure_Ins01","response_time_Procedure_Ins02","response_time_Procedure_Ins03","response_time_Ready","response_time_Response_Ins","response_time_Target_response","response_time_Title","sampler_backend","soa","start","subject_nr","subject_parity","time_Block_Break","time_Block_EXPERIMENT_A","time_Block_EXPERIMENT_B","time_Block_Parctice_B","time_Block_Practice_A","time_Block_reset_EXPERIMENT_A","time_Block_reset_EXPERIMENT_B","time_Block_reset_Practice_A","time_Block_reset_Practice_B","time_Break","time_Decide_Color","time_EXPERIMENT_A","time_EXPERIMENT_B","time_EXP_A","time_EXP_B","time_Initial","time_Intertrial","time_Practice_A","time_Practice_B","time_Prepare","time_Prepare_circle_compatible","time_Prepare_circle_incompatible","time_Prepare_rect_compatible","time_Prepare_rect_incompatible","time_Procedure_Ins01","time_Procedure_Ins02","time_Procedure_Ins03","time_Ready","time_Response_Ins","time_Select_Experiment","time_Target","time_Target_circle_compatible","time_Target_circle_incompatible","time_Target_rect_compatible","time_Target_rect_incompatible","time_Target_response","time_Target_response_BadResponse","time_Target_response_Correct","time_Target_response_Wrong","time_Target_response_logger","time_Title","time_Trial","time_Trial_EXPERIMENT_A","time_Trial_EXPERIMENT_B","time_Trial_Practice_A","time_Trial_Practice_B","time_experiment","title","total_correct","total_response_time","total_responses","uniform_coordinates","width"
"n","yes","no","circle","100","100","1903","1903","black","no","xpyriment","legacy","yellow","red","green","blue","legacy","0","uniform","1","1","z","1","NA","NA","NA","0","NA","NA","0","NA","NA","0","0","0","0","0","0","0","0","0","0","0","0","0","0","0","0","0","0","0","0","0","0","0","0","0","0","0","0","0","0","0","0","NA","NA","0","NA","0","01/02/16 13:52:33","Default description","no","chinese-japanese-korean","no","18","white","開始實驗A","768","legacy","C:/Users/Evonne/Desktop/test/Compatibility/3_Data Collection/RAW/A-2.csv","xpyriment","Interactive Ising","3.0.2","yes","0","z","NA","NA","z","space","/","space","/","z","space","1903","NA","NA","1432","1636","3999","27050","2460","1903","2678","legacy","500","experiment","1","odd","NA","NA","NA","NA","84125","NA","NA","NA","NA","NA","87758","NA","NA","84114","NA","89561","88019","84114","NA","90562","NA","90565","NA","NA","49982","51418","53058","57062","47518","7115","91065","NA","91068","NA","NA","91069","NA","92978","NA","93078","44804","87758","NA","NA","84125","NA","7011","Hommel2002EXP01","1","1903","1","yes","1024"
"n","yes","no","rect","100","100","1363","1363","black","no","xpyriment","legacy","red","yellow","green","blue","legacy","0","uniform","1","1","/","1","NA","NA","NA","0","NA","NA","0","NA","NA","1","0","0","0","0","1","1","0","0","1","1","1","1","1","0","0","0","0","0","0","1","1","1","1","1","1","1","1","1","1","0","1","NA","NA","0","NA","0","01/02/16 13:52:33","Default description","no","chinese-japanese-korean","no","18","white","開始實驗A","768","legacy","C:/Users/Evonne/Desktop/test/Compatibility/3_Data Collection/RAW/A-2.csv","xpyriment","Interactive Ising","3.0.2","yes","0","/","NA","NA","z","space","/","space","/","/","space","823","NA","NA","1432","1636","3999","27050","2460","823","2678","legacy","500","experiment","1","odd","NA","NA","NA","NA","84125","NA","NA","NA","NA","NA","97014","NA","NA","84114","NA","98839","97290","84114","NA","99839","NA","90565","NA","99842","49982","51418","53058","57062","47518","7115","100342","NA","91068","NA","100345","100346","NA","101174","NA","101274","44804","97013","NA","NA","84125","NA","7011","Hommel2002EXP01","2","2726","2","yes","1024"
"y","yes","no","circle","100","100","1262","1262","black","no","xpyriment","legacy","green","yellow","red","blue","legacy","0","uniform","1","1","z","1","NA","NA","NA","0","NA","NA","0","NA","NA","2","0","0","0","0","2","2","0","0","2","2","2","2","2","0","0","0","0","0","0","2","2","2","2","2","2","2","2","2","2","0","2","NA","NA","0","NA","0","01/02/16 13:52:33","Default description","no","chinese-japanese-korean","no","18","white","開始實驗A","768","legacy","C:/Users/Evonne/Desktop/test/Compatibility/3_Data Collection/RAW/A-2.csv","xpyriment","Interactive Ising","3.0.2","yes","0","z","NA","NA","z","space","/","space","/","z","space","1062","NA","NA","1432","1636","3999","27050","2460","1062","2678","legacy","1000","experiment","1","odd","NA","NA","NA","NA","84125","NA","NA","NA","NA","NA","105244","NA","NA","84114","NA","107069","105521","84114","NA","108069","108072","90565","NA","99842","49982","51418","53058","57062","47518","7115","109072","109075","91068","NA","100345","109076","NA","110143","NA","110243","44804","105243","NA","NA","84125","NA","7011","Hommel2002EXP01","3","3788","3","yes","1024"
"y","yes","no","rect","100","100","1234","1234","black","no","xpyriment","legacy","yellow","green","blue","red","legacy","0","uniform","1","1","/","1","NA","NA","NA","0","NA","NA","0","NA","NA","3","0","0","0","0","3","3","0","0","3","3","3","3","3","0","0","0","0","0","0","3","3","3","3","3","3","3","3","3","3","0","3","NA","NA","0","NA","0","01/02/16 13:52:33","Default description","no","chinese-japanese-korean","no","18","white","開始實驗A","768","legacy","C:/Users/Evonne/Desktop/test/Compatibility/3_Data Collection/RAW/A-2.csv","xpyriment","Interactive Ising","3.0.2","yes","0","/","NA","NA","z","space","/","space","/","/","space","1148","NA","NA","1432","1636","3999","27050","2460","1148","2678","legacy","0","experiment","1","odd","NA","NA","NA","NA","84125","NA","NA","NA","NA","NA","114537","NA","NA","84114","NA","116392","114889","84114","NA","117393","108072","90565","117396","99842","49982","51418","53058","57062","47518","7115","117396","109075","91068","117400","100345","117400","NA","118553","NA","118653","44804","114537","NA","NA","84125","NA","7011","Hommel2002EXP01","4","4936","4","yes","1024"
"n","yes","no","circle","100","100","1157","1157","black","no","xpyriment","legacy","blue","yellow","red","green","legacy","0","uniform","1","1","z","1","NA","NA","NA","0","NA","NA","0","NA","NA","4","0","0","0","0","4","4","0","0","4","4","4","4","4","0","0","0","0","0","0","4","4","4","4","4","4","4","4","4","4","0","4","NA","NA","0","NA","0","01/02/16 13:52:33","Default description","no","chinese-japanese-korean","no","18","white","開始實驗A","768","legacy","C:/Users/Evonne/Desktop/test/Compatibility/3_Data Collection/RAW/A-2.csv","xpyriment","Interactive Ising","3.0.2","yes","0","z","NA","NA","z","space","/","space","/","z","space","849","NA","NA","1432","1636","3999","27050","2460","849","2678","legacy","1500","experiment","1","odd","NA","NA","NA","NA","84125","NA","NA","NA","NA","NA","122394","NA","NA","84114","NA","124216","122669","84114","NA","125216","108072","125219","117396","99842","49982","51418","53058","57062","47518","7115","126719","109075","126722","117400","100345","126723","NA","127577","NA","127677","44804","122394","NA","NA","84125","NA","7011","Hommel2002EXP01","5","5785","5","yes","1024"
"y","yes","no","circle","100","100","1256","1256","black","no","xpyriment","legacy","red","yellow","blue","green","legacy","0","uniform","1","1","z","1","NA","NA","NA","0","NA","NA","0","NA","NA","5","0","0","0","0","5","5","0","0","5","5","5","5","5","0","0","0","0","0","0","5","5","5","5","5","5","5","5","5","5","0","5","NA","NA","0","NA","0","01/02/16 13:52:33","Default description","no","chinese-japanese-korean","no","18","white","開始實驗A","768","legacy","C:/Users/Evonne/Desktop/test/Compatibility/3_Data Collection/RAW/A-2.csv","xpyriment","Interactive Ising","3.0.2","yes","0","z","NA","NA","z","space","/","space","/","z","space","1754","NA","NA","1432","1636","3999","27050","2460","1754","2678","legacy","0","experiment","1","odd","NA","NA","NA","NA","84125","NA","NA","NA","NA","NA","131549","NA","NA","84114","NA","133382","131831","84114","NA","134383","134386","125219","117396","99842","49982","51418","53058","57062","47518","7115","134387","134390","126722","117400","100345","134390","NA","136149","NA","136250","44804","131549","NA","NA","84125","NA","7011","Hommel2002EXP01","6","7539","6","yes","1024"
"y","yes","no","rect","100","100","1282","1282","black","no","xpyriment","legacy","blue","red","yellow","green","legacy","0","uniform","1","1","/","1","NA","NA","NA","0","NA","NA","0","NA","NA","6","0","0","0","0","6","6","0","0","6","6","6","6","6","0","0","0","0","0","0","6","6","6","6","6","6","6","6","6","6","0","6","NA","NA","0","NA","0","01/02/16 13:52:33","Default description","no","chinese-japanese-korean","no","18","white","開始實驗A","768","legacy","C:/Users/Evonne/Desktop/test/Compatibility/3_Data Collection/RAW/A-2.csv","xpyriment","Interactive Ising","3.0.2","yes","0","/","NA","NA","z","space","/","space","/","/","space","1437","NA","NA","1432","1636","3999","27050","2460","1437","2678","legacy","500","experiment","1","odd","NA","NA","NA","NA","84125","NA","NA","NA","NA","NA","140094","NA","NA","84114","NA","141919","140373","84114","NA","142920","134386","125219","142923","99842","49982","51418","53058","57062","47518","7115","143423","134390","126722","143427","100345","143427","NA","144869","NA","144969","44804","140093","NA","NA","84125","NA","7011","Hommel2002EXP01","7","8976","7","yes","1024"
"n","yes","no","circle","87.5","87.5","1372","1372","black","no","xpyriment","legacy","blue","yellow","red","green","legacy","0","uniform","0","0","z","1","NA","NA","NA","0","NA","NA","0","NA","NA","7","0","0","0","0","7","7","0","0","7","7","7","7","7","0","0","0","0","0","0","7","7","7","7","7","7","7","7","7","7","0","7","NA","NA","0","NA","0","01/02/16 13:52:33","Default description","no","chinese-japanese-korean","no","18","white","開始實驗A","768","legacy","C:/Users/Evonne/Desktop/test/Compatibility/3_Data Collection/RAW/A-2.csv","xpyriment","Interactive Ising","3.0.2","yes","0","None","NA","NA","z","space","/","space","/","None","space","2000","NA","NA","1432","1636","3999","27050","2460","2000","2678","legacy","1000","experiment","1","odd","NA","NA","NA","NA","84125","NA","NA","NA","NA","NA","148851","NA","NA","84114","NA","150687","149146","84114","NA","151687","134386","151690","142923","99842","49982","51418","53058","57062","47518","7115","152690","134390","152693","143427","100345","152694","154801","144869","154698","154901","44804","148850","NA","NA","84125","NA","7011","Hommel2002EXP01","7","10976","8","yes","1024"
"n","yes","no","circle","88.8888888889","88.8888888889","1312","1312","black","no","xpyriment","legacy","yellow","red","blue","green","legacy","0","uniform","1","1","z","1","NA","NA","NA","0","NA","NA","0","NA","NA","8","0","0","0","0","8","8","0","0","8","8","8","8","8","0","0","0","0","0","0","8","8","8","8","8","8","8","8","8","8","0","8","NA","NA","0","NA","0","01/02/16 13:52:33","Default description","no","chinese-japanese-korean","no","18","white","開始實驗A","768","legacy","C:/Users/Evonne/Desktop/test/Compatibility/3_Data Collection/RAW/A-2.csv","xpyriment","Interactive Ising","3.0.2","yes","0","z","NA","NA","z","space","/","space","/","z","space","832","NA","NA","1432","1636","3999","27050","2460","832","2678","legacy","1000","experiment","1","odd","NA","NA","NA","NA","84125","NA","NA","NA","NA","NA","158784","NA","NA","84114","NA","160629","159073","84114","NA","161629","134386","161632","142923","99842","49982","51418","53058","57062","47518","7115","162632","134390","162635","143427","100345","162636","154801","163473","154698","163573","44804","158784","NA","NA","84125","NA","7011","Hommel2002EXP01","8","11808","9","yes","1024"
"n","yes","no","rect","90","90","1272","1272","black","no","xpyriment","legacy","red","blue","yellow","green","legacy","0","uniform","1","1","/","1","NA","NA","NA","0","NA","NA","0","NA","NA","9","0","0","0","0","9","9","0","0","9","9","9","9","9","0","0","0","0","0","0","9","9","9","9","9","9","9","9","9","9","0","9","NA","NA","0","NA","0","01/02/16 13:52:33","Default description","no","chinese-japanese-korean","no","18","white","開始實驗A","768","legacy","C:/Users/Evonne/Desktop/test/Compatibility/3_Data Collection/RAW/A-2.csv","xpyriment","Interactive Ising","3.0.2","yes","0","/","NA","NA","z","space","/","space","/","/","space","921","NA","NA","1432","1636","3999","27050","2460","921","2678","legacy","0","experiment","1","odd","NA","NA","NA","NA","84125","NA","NA","NA","NA","NA","167485","NA","NA","84114","NA","169424","167922","84114","NA","170425","134386","161632","142923","170428","49982","51418","53058","57062","47518","7115","170428","134390","162635","143427","170431","170432","154801","171359","154698","171459","44804","167485","NA","NA","84125","NA","7011","Hommel2002EXP01","9","12729","10","yes","1024"
"n","yes","no","circle","90.9090909091","90.9090909091","1227","1227","black","no","xpyriment","legacy","red","green","blue","yellow","legacy","0","uniform","1","1","z","1","NA","NA","NA","0","NA","NA","0","NA","NA","10","0","0","0","0","10","10","0","0","10","10","10","10","10","0","0","0","0","0","0","10","10","10","10","10","10","10","10","10","10","0","10","NA","NA","0","NA","0","01/02/16 13:52:33","Default description","no","chinese-japanese-korean","no","18","white","開始實驗A","768","legacy","C:/Users/Evonne/Desktop/test/Compatibility/3_Data Collection/RAW/A-2.csv","xpyriment","Interactive Ising","3.0.2","yes","0","z","NA","NA","z","space","/","space","/","z","space","770","NA","NA","1432","1636","3999","27050","2460","770","2678","legacy","500","experiment","1","odd","NA","NA","NA","NA","84125","NA","NA","NA","NA","NA","174685","NA","NA","84114","NA","176392","174851","84114","NA","177392","134386","177395","142923","170428","49982","51418","53058","57062","47518","7115","177895","134390","177898","143427","170431","177899","154801","178674","154698","178774","44804","174684","NA","NA","84125","NA","7011","Hommel2002EXP01","10","13499","11","yes","1024"
"n","yes","no","rect","91.6666666667","91.6666666667","1201","1201","black","no","xpyriment","legacy","green","yellow","red","blue","legacy","0","uniform","1","1","/","1","NA","NA","NA","0","NA","NA","0","NA","NA","11","0","0","0","0","11","11","0","0","11","11","11","11","11","0","0","0","0","0","0","11","11","11","11","11","11","11","11","11","11","0","11","NA","NA","0","NA","0","01/02/16 13:52:33","Default description","no","chinese-japanese-korean","no","18","white","開始實驗A","768","legacy","C:/Users/Evonne/Desktop/test/Compatibility/3_Data Collection/RAW/A-2.csv","xpyriment","Interactive Ising","3.0.2","yes","0","/","NA","NA","z","space","/","space","/","/","space","921","NA","NA","1432","1636","3999","27050","2460","921","2678","legacy","1000","experiment","1","odd","NA","NA","NA","NA","84125","NA","NA","NA","NA","NA","182898","NA","NA","84114","NA","184669","183128","84114","NA","185669","134386","177395","142923","185672","49982","51418","53058","57062","47518","7115","186672","134390","177898","143427","186675","186676","154801","187602","154698","187702","44804","182897","NA","NA","84125","NA","7011","Hommel2002EXP01","11","14420","12","yes","1024"
"n","yes","no","rect","92.3076923077","92.3076923077","1168","1168","black","no","xpyriment","legacy","blue","yellow","red","green","legacy","0","uniform","1","1","/","1","NA","NA","NA","0","NA","NA","0","NA","NA","12","0","0","0","0","12","12","0","0","12","12","12","12","12","0","0","0","0","0","0","12","12","12","12","12","12","12","12","12","12","0","12","NA","NA","0","NA","0","01/02/16 13:52:33","Default description","no","chinese-japanese-korean","no","18","white","開始實驗A","768","legacy","C:/Users/Evonne/Desktop/test/Compatibility/3_Data Collection/RAW/A-2.csv","xpyriment","Interactive Ising","3.0.2","yes","0","/","NA","NA","z","space","/","space","/","/","space","768","NA","NA","1432","1636","3999","27050","2460","768","2678","legacy","1000","experiment","1","odd","NA","NA","NA","NA","84125","NA","NA","NA","NA","NA","191589","NA","NA","84114","NA","193404","191859","84114","NA","194405","134386","177395","142923","194408","49982","51418","53058","57062","47518","7115","195408","134390","177898","143427","195411","195412","154801","196185","154698","196286","44804","191588","NA","NA","84125","NA","7011","Hommel2002EXP01","12","15188","13","yes","1024"
"y","yes","no","rect","92.8571428571","92.8571428571","1146","1146","black","no","xpyriment","legacy","green","blue","red","yellow","legacy","0","uniform","1","1","/","1","NA","NA","NA","0","NA","NA","0","NA","NA","13","0","0","0","0","13","13","0","0","13","13","13","13","13","0","0","0","0","0","0","13","13","13","13","13","13","13","13","13","13","0","13","NA","NA","0","NA","0","01/02/16 13:52:33","Default description","no","chinese-japanese-korean","no","18","white","開始實驗A","768","legacy","C:/Users/Evonne/Desktop/test/Compatibility/3_Data Collection/RAW/A-2.csv","xpyriment","Interactive Ising","3.0.2","yes","0","/","NA","NA","z","space","/","space","/","/","space","864","NA","NA","1432","1636","3999","27050","2460","864","2678","legacy","1500","experiment","1","odd","NA","NA","NA","NA","84125","NA","NA","NA","NA","NA","200087","NA","NA","84114","NA","201920","200372","84114","NA","202920","134386","177395","202923","194408","49982","51418","53058","57062","47518","7115","204423","134390","177898","204426","195411","204426","154801","205295","154698","205395","44804","200086","NA","NA","84125","NA","7011","Hommel2002EXP01","13","16052","14","yes","1024"
"n","yes","no","rect","93.3333333333","93.3333333333","1143","1143","black","no","xpyriment","legacy","red","yellow","green","blue","legacy","0","uniform","1","1","/","1","NA","NA","NA","0","NA","NA","0","NA","NA","14","0","0","0","0","14","14","0","0","14","14","14","14","14","0","0","0","0","0","0","14","14","14","14","14","14","14","14","14","14","0","14","NA","NA","0","NA","0","01/02/16 13:52:33","Default description","no","chinese-japanese-korean","no","18","white","開始實驗A","768","legacy","C:/Users/Evonne/Desktop/test/Compatibility/3_Data Collection/RAW/A-2.csv","xpyriment","Interactive Ising","3.0.2","yes","0","/","NA","NA","z","space","/","space","/","/","space","1105","NA","NA","1432","1636","3999","27050","2460","1105","2678","legacy","0","experiment","1","odd","NA","NA","NA","NA","84125","NA","NA","NA","NA","NA","209215","NA","NA","84114","NA","211024","209489","84114","NA","212024","134386","177395","202923","212027","49982","51418","53058","57062","47518","7115","212027","134390","177898","204426","212031","212031","154801","213141","154698","213241","44804","209214","NA","NA","84125","NA","7011","Hommel2002EXP01","14","17157","15","yes","1024"
"y","yes","no","circle","93.75","93.75","1115","1115","black","no","xpyriment","legacy","blue","yellow","green","red","legacy","0","uniform","1","1","z","1","NA","NA","NA","0","NA","NA","0","NA","NA","15","0","0","0","0","15","15","0","0","15","15","15","15","15","0","0","0","0","0","0","15","15","15","15","15","15","15","15","15","15","0","15","NA","NA","0","NA","0","01/02/16 13:52:33","Default description","no","chinese-japanese-korean","no","18","white","開始實驗A","768","legacy","C:/Users/Evonne/Desktop/test/Compatibility/3_Data Collection/RAW/A-2.csv","xpyriment","Interactive Ising","3.0.2","yes","0","z","NA","NA","z","space","/","space","/","z","space","688","NA","NA","1432","1636","3999","27050","2460","688","2678","legacy","1000","experiment","1","odd","NA","NA","NA","NA","84125","NA","NA","NA","NA","NA","217060","NA","NA","84114","NA","218881","217342","84114","NA","219881","219884","177395","202923","212027","49982","51418","53058","57062","47518","7115","220884","220887","177898","204426","212031","220888","154801","221582","154698","221682","44804","217060","NA","NA","84125","NA","7011","Hommel2002EXP01","15","17845","16","yes","1024"
"y","yes","no","rect","88.2352941176","88.2352941176","1140","1140","black","no","xpyriment","legacy","green","red","yellow","blue","legacy","0","uniform","0","0","/","1","NA","NA","NA","0","NA","NA","0","NA","NA","16","0","0","0","0","16","16","0","0","16","16","16","16","16","0","0","0","0","0","0","16","16","16","16","16","16","16","16","16","16","0","16","NA","NA","0","NA","0","01/02/16 13:52:33","Default description","no","chinese-japanese-korean","no","18","white","開始實驗A","768","legacy","C:/Users/Evonne/Desktop/test/Compatibility/3_Data Collection/RAW/A-2.csv","xpyriment","Interactive Ising","3.0.2","yes","0","z","NA","NA","z","space","/","space","/","z","space","1537","NA","NA","1432","1636","3999","27050","2460","1537","2678","legacy","1500","experiment","1","odd","NA","NA","NA","NA","84125","NA","NA","NA","NA","NA","225615","NA","NA","84114","NA","227578","226075","84114","NA","228578","219884","177395","228582","212027","49982","51418","53058","57062","47518","7115","230082","220887","177898","230086","212031","230086","154801","221582","231629","231729","44804","225614","NA","NA","84125","NA","7011","Hommel2002EXP01","15","19382","17","yes","1024"
"n","yes","no","circle","83.3333333333","83.3333333333","1187","1187","black","no","xpyriment","legacy","green","yellow","red","blue","legacy","0","uniform","0","0","z","1","NA","NA","NA","0","NA","NA","0","NA","NA","17","0","0","0","0","17","17","0","0","17","17","17","17","17","0","0","0","0","0","0","17","17","17","17","17","17","17","17","17","17","0","17","NA","NA","0","NA","0","01/02/16 13:52:33","Default description","no","chinese-japanese-korean","no","18","white","開始實驗A","768","legacy","C:/Users/Evonne/Desktop/test/Compatibility/3_Data Collection/RAW/A-2.csv","xpyriment","Interactive Ising","3.0.2","yes","0","None","NA","NA","z","space","/","space","/","None","space","2000","NA","NA","1432","1636","3999","27050","2460","2000","2678","legacy","0","experiment","1","odd","NA","NA","NA","NA","84125","NA","NA","NA","NA","NA","234849","NA","NA","84114","NA","236534","234989","84114","NA","237535","219884","237538","228582","212027","49982","51418","53058","57062","47518","7115","237539","220887","237541","230086","212031","237542","239649","221582","239546","239749","44804","234847","NA","NA","84125","NA","7011","Hommel2002EXP01","15","21382","18","yes","1024"
"y","yes","no","rect","84.2105263158","84.2105263158","1162","1162","black","no","xpyriment","legacy","green","yellow","red","blue","legacy","0","uniform","1","1","/","1","NA","NA","NA","0","NA","NA","0","NA","NA","18","0","0","0","0","18","18","0","0","18","18","18","18","18","0","0","0","0","0","0","18","18","18","18","18","18","18","18","18","18","0","18","NA","NA","0","NA","0","01/02/16 13:52:33","Default description","no","chinese-japanese-korean","no","18","white","開始實驗A","768","legacy","C:/Users/Evonne/Desktop/test/Compatibility/3_Data Collection/RAW/A-2.csv","xpyriment","Interactive Ising","3.0.2","yes","0","/","NA","NA","z","space","/","space","/","/","space","714","NA","NA","1432","1636","3999","27050","2460","714","2678","legacy","1000","experiment","1","odd","NA","NA","NA","NA","84125","NA","NA","NA","NA","NA","244035","NA","NA","84114","NA","245710","244165","84114","NA","246710","219884","237538","246713","212027","49982","51418","53058","57062","47518","7115","247714","220887","237541","247717","212031","247718","239649","248438","239546","248538","44804","244034","NA","NA","84125","NA","7011","Hommel2002EXP01","16","22096","19","yes","1024"
"y","yes","no","circle","85","85","1147","1147","black","no","xpyriment","legacy","green","red","blue","yellow","legacy","0","uniform","1","1","z","1","NA","NA","NA","0","NA","NA","0","NA","NA","19","0","0","0","0","19","19","0","0","19","19","19","19","19","0","0","0","0","0","0","19","19","19","19","19","19","19","19","19","19","0","19","NA","NA","0","NA","0","01/02/16 13:52:33","Default description","no","chinese-japanese-korean","no","18","white","開始實驗A","768","legacy","C:/Users/Evonne/Desktop/test/Compatibility/3_Data Collection/RAW/A-2.csv","xpyriment","Interactive Ising","3.0.2","yes","0","z","NA","NA","z","space","/","space","/","z","space","847","NA","NA","1432","1636","3999","27050","2460","847","2678","legacy","1500","experiment","1","odd","NA","NA","NA","NA","84125","NA","NA","NA","NA","NA","252529","NA","NA","84114","NA","254274","252728","84114","NA","255274","255277","237538","246713","212027","49982","51418","53058","57062","47518","7115","256777","256781","237541","247717","212031","256782","239649","257634","239546","257734","44804","252529","NA","NA","84125","NA","7011","Hommel2002EXP01","17","22943","20","yes","1024"
"n","yes","no","rect","85.7142857143","85.7142857143","1131","1131","black","no","xpyriment","legacy","yellow","green","red","blue","legacy","0","uniform","1","1","/","1","NA","NA","NA","0","NA","NA","0","NA","NA","20","0","0","0","0","20","20","0","0","20","20","20","20","20","0","0","0","0","0","0","20","20","20","20","20","20","20","20","20","20","0","20","NA","NA","0","NA","0","01/02/16 13:52:33","Default description","no","chinese-japanese-korean","no","18","white","開始實驗A","768","legacy","C:/Users/Evonne/Desktop/test/Compatibility/3_Data Collection/RAW/A-2.csv","xpyriment","Interactive Ising","3.0.2","yes","0","/","NA","NA","z","space","/","space","/","/","space","826","NA","NA","1432","1636","3999","27050","2460","826","2678","legacy","1500","experiment","1","odd","NA","NA","NA","NA","84125","NA","NA","NA","NA","NA","261746","NA","NA","84114","NA","263583","262038","84114","NA","264583","255277","237538","246713","264586","49982","51418","53058","57062","47518","7115","266086","256781","237541","247717","266089","266090","239649","266921","239546","267021","44804","261746","NA","NA","84125","NA","7011","Hommel2002EXP01","18","23769","21","yes","1024"
"n","yes","no","rect","86.3636363636","86.3636363636","1114","1114","black","no","xpyriment","legacy","red","yellow","blue","green","legacy","0","uniform","1","1","/","1","NA","NA","NA","0","NA","NA","0","NA","NA","21","0","0","0","0","21","21","0","0","21","21","21","21","21","0","0","0","0","0","0","21","21","21","21","21","21","21","21","21","21","0","21","NA","NA","0","NA","0","01/02/16 13:52:33","Default description","no","chinese-japanese-korean","no","18","white","開始實驗A","768","legacy","C:/Users/Evonne/Desktop/test/Compatibility/3_Data Collection/RAW/A-2.csv","xpyriment","Interactive Ising","3.0.2","yes","0","/","NA","NA","z","space","/","space","/","/","space","747","NA","NA","1432","1636","3999","27050","2460","747","2678","legacy","500","experiment","1","odd","NA","NA","NA","NA","84125","NA","NA","NA","NA","NA","270860","NA","NA","84114","NA","272684","271141","84114","NA","273684","255277","237538","246713","273687","49982","51418","53058","57062","47518","7115","274187","256781","237541","247717","274190","274190","239649","274942","239546","275043","44804","270859","NA","NA","84125","NA","7011","Hommel2002EXP01","19","24516","22","yes","1024"
"n","yes","no","rect","86.9565217391","86.9565217391","1101","1101","black","no","xpyriment","legacy","blue","green","yellow","red","legacy","0","uniform","1","1","/","1","NA","NA","NA","0","NA","NA","0","NA","NA","22","0","0","0","0","22","22","0","0","22","22","22","22","22","0","0","0","0","0","0","22","22","22","22","22","22","22","22","22","22","0","22","NA","NA","0","NA","0","01/02/16 13:52:33","Default description","no","chinese-japanese-korean","no","18","white","開始實驗A","768","legacy","C:/Users/Evonne/Desktop/test/Compatibility/3_Data Collection/RAW/A-2.csv","xpyriment","Interactive Ising","3.0.2","yes","0","/","NA","NA","z","space","/","space","/","/","space","828","NA","NA","1432","1636","3999","27050","2460","828","2678","legacy","1500","experiment","1","odd","NA","NA","NA","NA","84125","NA","NA","NA","NA","NA","278737","NA","NA","84114","NA","280659","279156","84114","NA","281659","255277","237538","246713","281662","49982","51418","53058","57062","47518","7115","283162","256781","237541","247717","283165","283165","239649","283999","239546","284099","44804","278736","NA","NA","84125","NA","7011","Hommel2002EXP01","20","25344","23","yes","1024"
"y","yes","no","circle","87.5","87.5","1104","1104","black","no","xpyriment","legacy","green","blue","yellow","red","legacy","0","uniform","1","1","z","1","NA","NA","NA","0","NA","NA","0","NA","NA","23","0","0","0","0","23","23","0","0","23","23","23","23","23","0","0","0","0","0","0","23","23","23","23","23","23","23","23","23","23","0","23","NA","NA","0","NA","0","01/02/16 13:52:33","Default description","no","chinese-japanese-korean","no","18","white","開始實驗A","768","legacy","C:/Users/Evonne/Desktop/test/Compatibility/3_Data Collection/RAW/A-2.csv","xpyriment","Interactive Ising","3.0.2","yes","0","z","NA","NA","z","space","/","space","/","z","space","1155","NA","NA","1432","1636","3999","27050","2460","1155","2678","legacy","0","experiment","1","odd","NA","NA","NA","NA","84125","NA","NA","NA","NA","NA","287615","NA","NA","84114","NA","289306","287761","84114","NA","290307","290310","237538","246713","281662","49982","51418","53058","57062","47518","7115","290310","290313","237541","247717","283165","290314","239649","291474","239546","291574","44804","287614","NA","NA","84125","NA","7011","Hommel2002EXP01","21","26499","24","yes","1024"
"y","yes","no","rect","88","88","1095","1095","black","no","xpyriment","legacy","green","red","blue","yellow","legacy","0","uniform","1","1","/","1","NA","NA","NA","0","NA","NA","0","NA","NA","24","0","0","0","0","24","24","0","0","24","24","24","24","24","0","0","0","0","0","0","24","24","24","24","24","24","24","24","24","24","0","24","NA","NA","0","NA","0","01/02/16 13:52:33","Default description","no","chinese-japanese-korean","no","18","white","開始實驗A","768","legacy","C:/Users/Evonne/Desktop/test/Compatibility/3_Data Collection/RAW/A-2.csv","xpyriment","Interactive Ising","3.0.2","yes","0","/","NA","NA","z","space","/","space","/","/","space","900","NA","NA","1432","1636","3999","27050","2460","900","2678","legacy","500","experiment","1","odd","NA","NA","NA","NA","84125","NA","NA","NA","NA","NA","295794","NA","NA","84114","NA","297517","295972","84114","NA","298518","290310","237538","298523","281662","49982","51418","53058","57062","47518","7115","299023","290313","237541","299027","283165","299027","239649","299934","239546","300034","44804","295793","NA","NA","84125","NA","7011","Hommel2002EXP01","22","27399","25","yes","1024"
"y","yes","no","rect","88.4615384615","88.4615384615","1083","1083","black","no","xpyriment","legacy","red","blue","green","yellow","legacy","0","uniform","1","1","/","1","NA","NA","NA","0","NA","NA","0","NA","NA","25","0","0","0","0","25","25","0","0","25","25","25","25","25","0","0","0","0","0","0","25","25","25","25","25","25","25","25","25","25","0","25","NA","NA","0","NA","0","01/02/16 13:52:33","Default description","no","chinese-japanese-korean","no","18","white","開始實驗A","768","legacy","C:/Users/Evonne/Desktop/test/Compatibility/3_Data Collection/RAW/A-2.csv","xpyriment","Interactive Ising","3.0.2","yes","0","/","NA","NA","z","space","/","space","/","/","space","764","NA","NA","1432","1636","3999","27050","2460","764","2678","legacy","0","experiment","1","odd","NA","NA","NA","NA","84125","NA","NA","NA","NA","NA","304300","NA","NA","84114","NA","306053","304503","84114","NA","307053","290310","237538","307056","281662","49982","51418","53058","57062","47518","7115","307056","290313","237541","307060","283165","307060","239649","307829","239546","307929","44804","304300","NA","NA","84125","NA","7011","Hommel2002EXP01","23","28163","26","yes","1024"
"y","yes","no","rect","88.8888888889","88.8888888889","1066","1066","black","no","xpyriment","legacy","blue","red","yellow","green","legacy","0","uniform","1","1","/","1","NA","NA","NA","0","NA","NA","0","NA","NA","26","0","0","0","0","26","26","0","0","26","26","26","26","26","0","0","0","0","0","0","26","26","26","26","26","26","26","26","26","26","0","26","NA","NA","0","NA","0","01/02/16 13:52:33","Default description","no","chinese-japanese-korean","no","18","white","開始實驗A","768","legacy","C:/Users/Evonne/Desktop/test/Compatibility/3_Data Collection/RAW/A-2.csv","xpyriment","Interactive Ising","3.0.2","yes","0","/","NA","NA","z","space","/","space","/","/","space","644","NA","NA","1432","1636","3999","27050","2460","644","2678","legacy","1000","experiment","1","odd","NA","NA","NA","NA","84125","NA","NA","NA","NA","NA","312016","NA","NA","84114","NA","313777","312230","84114","NA","314777","290310","237538","314780","281662","49982","51418","53058","57062","47518","7115","315781","290313","237541","315784","283165","315784","239649","316433","239546","316534","44804","312016","NA","NA","84125","NA","7011","Hommel2002EXP01","24","28807","27","yes","1024"
"y","yes","no","circle","89.2857142857","89.2857142857","1060","1060","black","no","xpyriment","legacy","yellow","red","green","blue","legacy","0","uniform","1","1","z","1","NA","NA","NA","0","NA","NA","0","NA","NA","27","0","0","0","0","27","27","0","0","27","27","27","27","27","0","0","0","0","0","0","27","27","27","27","27","27","27","27","27","27","0","27","NA","NA","0","NA","0","01/02/16 13:52:33","Default description","no","chinese-japanese-korean","no","18","white","開始實驗A","768","legacy","C:/Users/Evonne/Desktop/test/Compatibility/3_Data Collection/RAW/A-2.csv","xpyriment","Interactive Ising","3.0.2","yes","0","z","NA","NA","z","space","/","space","/","z","space","875","NA","NA","1432","1636","3999","27050","2460","875","2678","legacy","500","experiment","1","odd","NA","NA","NA","NA","84125","NA","NA","NA","NA","NA","320406","NA","NA","84114","NA","322224","320679","84114","NA","323224","323227","237538","314780","281662","49982","51418","53058","57062","47518","7115","323727","323730","237541","315784","283165","323731","239649","324611","239546","324711","44804","320405","NA","NA","84125","NA","7011","Hommel2002EXP01","25","29682","28","yes","1024"
"y","yes","no","circle","89.6551724138","89.6551724138","1045","1045","black","no","xpyriment","legacy","red","green","yellow","blue","legacy","0","uniform","1","1","z","1","NA","NA","NA","0","NA","NA","0","NA","NA","28","0","0","0","0","28","28","0","0","28","28","28","28","28","0","0","0","0","0","0","28","28","28","28","28","28","28","28","28","28","0","28","NA","NA","0","NA","0","01/02/16 13:52:33","Default description","no","chinese-japanese-korean","no","18","white","開始實驗A","768","legacy","C:/Users/Evonne/Desktop/test/Compatibility/3_Data Collection/RAW/A-2.csv","xpyriment","Interactive Ising","3.0.2","yes","0","z","NA","NA","z","space","/","space","/","z","space","639","NA","NA","1432","1636","3999","27050","2460","639","2678","legacy","500","experiment","1","odd","NA","NA","NA","NA","84125","NA","NA","NA","NA","NA","328484","NA","NA","84114","NA","330313","328768","84114","NA","331313","331316","237538","314780","281662","49982","51418","53058","57062","47518","7115","331816","331819","237541","315784","283165","331820","239649","332464","239546","332565","44804","328483","NA","NA","84125","NA","7011","Hommel2002EXP01","26","30321","29","yes","1024"
"n","yes","no","circle","90","90","1037","1037","black","no","xpyriment","legacy","red","green","yellow","blue","legacy","0","uniform","1","1","z","1","NA","NA","NA","0","NA","NA","0","NA","NA","29","0","0","0","0","29","29","0","0","29","29","29","29","29","0","0","0","0","0","0","29","29","29","29","29","29","29","29","29","29","0","29","NA","NA","0","NA","0","01/02/16 13:52:33","Default description","no","chinese-japanese-korean","no","18","white","開始實驗A","768","legacy","C:/Users/Evonne/Desktop/test/Compatibility/3_Data Collection/RAW/A-2.csv","xpyriment","Interactive Ising","3.0.2","yes","0","z","NA","NA","z","space","/","space","/","z","space","790","NA","NA","1432","1636","3999","27050","2460","790","2678","legacy","0","experiment","1","odd","NA","NA","NA","NA","84125","NA","NA","NA","NA","NA","336384","NA","NA","84114","NA","338318","336814","84114","NA","339318","331316","339321","314780","281662","49982","51418","53058","57062","47518","7115","339321","331819","339324","315784","283165","339325","239649","340120","239546","340220","44804","336383","NA","NA","84125","NA","7011","Hommel2002EXP01","27","31111","30","yes","1024"
"y","yes","no","circle","90.3225806452","90.3225806452","1030","1030","black","no","xpyriment","legacy","green","yellow","red","blue","legacy","0","uniform","1","1","z","1","NA","NA","NA","0","NA","NA","0","NA","NA","30","0","0","0","0","30","30","0","0","30","30","30","30","30","0","0","0","0","0","0","30","30","30","30","30","30","30","30","30","30","0","30","NA","NA","0","NA","0","01/02/16 13:52:33","Default description","no","chinese-japanese-korean","no","18","white","開始實驗A","768","legacy","C:/Users/Evonne/Desktop/test/Compatibility/3_Data Collection/RAW/A-2.csv","xpyriment","Interactive Ising","3.0.2","yes","0","z","NA","NA","z","space","/","space","/","z","space","836","NA","NA","1432","1636","3999","27050","2460","836","2678","legacy","1500","experiment","1","odd","NA","NA","NA","NA","84125","NA","NA","NA","NA","NA","343608","NA","NA","84114","NA","345285","343739","84114","NA","346285","346288","339321","314780","281662","49982","51418","53058","57062","47518","7115","347788","347791","339324","315784","283165","347792","239649","348634","239546","348734","44804","343607","NA","NA","84125","NA","7011","Hommel2002EXP01","28","31947","31","yes","1024"
"n","yes","no","circle","90.625","90.625","1021","1021","black","no","xpyriment","legacy","red","green","blue","yellow","legacy","0","uniform","1","1","z","1","NA","NA","NA","0","NA","NA","0","NA","NA","31","0","0","0","0","31","31","0","0","31","31","31","31","31","0","0","0","0","0","0","31","31","31","31","31","31","31","31","31","31","0","31","NA","NA","0","NA","0","01/02/16 13:52:33","Default description","no","chinese-japanese-korean","no","18","white","開始實驗A","768","legacy","C:/Users/Evonne/Desktop/test/Compatibility/3_Data Collection/RAW/A-2.csv","xpyriment","Interactive Ising","3.0.2","yes","0","z","NA","NA","z","space","/","space","/","z","space","737","NA","NA","1432","1636","3999","27050","2460","737","2678","legacy","1500","experiment","1","odd","NA","NA","NA","NA","84125","NA","NA","NA","NA","NA","352819","NA","NA","84114","NA","354540","352995","84114","NA","355540","346288","355543","314780","281662","49982","51418","53058","57062","47518","7115","357043","347791","357046","315784","283165","357047","239649","357789","239546","357889","44804","352818","NA","NA","84125","NA","7011","Hommel2002EXP01","29","32684","32","yes","1024"
"n","yes","no","rect","100","100","722","722","black","no","xpyriment","legacy","yellow","red","green","blue","legacy","0","uniform","1","1","/","1","NA","NA","NA","1","NA","NA","1","NA","0","32","0","0","0","0","32","32","0","0","32","32","32","32","32","0","0","0","0","0","0","32","32","32","32","32","32","32","32","32","32","0","32","NA","NA","1","NA","0","01/02/16 13:52:33","Default description","no","chinese-japanese-korean","no","18","white","開始實驗A","768","legacy","C:/Users/Evonne/Desktop/test/Compatibility/3_Data Collection/RAW/A-2.csv","xpyriment","Interactive Ising","3.0.2","yes","0","/","NA","space","z","space","/","space","/","/","space","722","NA","4987","1432","1636","3999","27050","2460","722","2678","legacy","1000","experiment","1","odd","NA","NA","NA","NA","363595","NA","NA","NA","NA","358601","367553","NA","NA","84114","NA","369378","367832","84114","NA","370379","346288","355543","314780","370383","49982","51418","53058","57062","47518","7115","371383","347791","357046","315784","371387","371387","239649","372115","239546","372216","44804","367553","NA","NA","363596","NA","7011","Hommel2002EXP01","1","722","1","yes","1024"
"n","yes","no","rect","100","100","714","714","black","no","xpyriment","legacy","yellow","green","blue","red","legacy","0","uniform","1","1","/","1","NA","NA","NA","1","NA","NA","1","NA","0","33","0","0","0","0","33","33","0","0","33","33","33","33","33","0","0","0","0","0","0","33","33","33","33","33","33","33","33","33","33","0","33","NA","NA","1","NA","0","01/02/16 13:52:33","Default description","no","chinese-japanese-korean","no","18","white","開始實驗A","768","legacy","C:/Users/Evonne/Desktop/test/Compatibility/3_Data Collection/RAW/A-2.csv","xpyriment","Interactive Ising","3.0.2","yes","0","/","NA","space","z","space","/","space","/","/","space","707","NA","4987","1432","1636","3999","27050","2460","707","2678","legacy","1500","experiment","1","odd","NA","NA","NA","NA","363595","NA","NA","NA","NA","358601","376076","NA","NA","84114","NA","377884","376337","84114","NA","378884","346288","355543","314780","378887","49982","51418","53058","57062","47518","7115","380387","347791","357046","315784","380390","380391","239649","381103","239546","381204","44804","376075","NA","NA","363596","NA","7011","Hommel2002EXP01","2","1429","2","yes","1024"
"n","yes","no","circle","100","100","715","715","black","no","xpyriment","legacy","green","blue","yellow","red","legacy","0","uniform","1","1","z","1","NA","NA","NA","1","NA","NA","1","NA","0","34","0","0","0","0","34","34","0","0","34","34","34","34","34","0","0","0","0","0","0","34","34","34","34","34","34","34","34","34","34","0","34","NA","NA","1","NA","0","01/02/16 13:52:33","Default description","no","chinese-japanese-korean","no","18","white","開始實驗A","768","legacy","C:/Users/Evonne/Desktop/test/Compatibility/3_Data Collection/RAW/A-2.csv","xpyriment","Interactive Ising","3.0.2","yes","0","z","NA","space","z","space","/","space","/","z","space","718","NA","4987","1432","1636","3999","27050","2460","718","2678","legacy","1000","experiment","1","odd","NA","NA","NA","NA","363595","NA","NA","NA","NA","358601","384945","NA","NA","84114","NA","386756","385209","84114","NA","387756","346288","387759","314780","378887","49982","51418","53058","57062","47518","7115","388759","347791","388762","315784","380390","388763","239649","389486","239546","389587","44804","384944","NA","NA","363596","NA","7011","Hommel2002EXP01","3","2147","3","yes","1024"
"n","yes","no","circle","100","100","724","724","black","no","xpyriment","legacy","red","yellow","green","blue","legacy","0","uniform","1","1","z","1","NA","NA","NA","1","NA","NA","1","NA","0","35","0","0","0","0","35","35","0","0","35","35","35","35","35","0","0","0","0","0","0","35","35","35","35","35","35","35","35","35","35","0","35","NA","NA","1","NA","0","01/02/16 13:52:33","Default description","no","chinese-japanese-korean","no","18","white","開始實驗A","768","legacy","C:/Users/Evonne/Desktop/test/Compatibility/3_Data Collection/RAW/A-2.csv","xpyriment","Interactive Ising","3.0.2","yes","0","z","NA","space","z","space","/","space","/","z","space","752","NA","4987","1432","1636","3999","27050","2460","752","2678","legacy","1500","experiment","1","odd","NA","NA","NA","NA","363595","NA","NA","NA","NA","358601","393924","NA","NA","84114","NA","395885","394383","84114","NA","396886","346288","396889","314780","378887","49982","51418","53058","57062","47518","7115","398389","347791","398392","315784","380390","398393","239649","399150","239546","399250","44804","393923","NA","NA","363596","NA","7011","Hommel2002EXP01","4","2899","4","yes","1024"
"y","yes","no","rect","100","100","743","743","black","no","xpyriment","legacy","green","blue","red","yellow","legacy","0","uniform","1","1","/","1","NA","NA","NA","1","NA","NA","1","NA","0","36","0","0","0","0","36","36","0","0","36","36","36","36","36","0","0","0","0","0","0","36","36","36","36","36","36","36","36","36","36","0","36","NA","NA","1","NA","0","01/02/16 13:52:33","Default description","no","chinese-japanese-korean","no","18","white","開始實驗A","768","legacy","C:/Users/Evonne/Desktop/test/Compatibility/3_Data Collection/RAW/A-2.csv","xpyriment","Interactive Ising","3.0.2","yes","0","/","NA","space","z","space","/","space","/","/","space","819","NA","4987","1432","1636","3999","27050","2460","819","2678","legacy","1500","experiment","1","odd","NA","NA","NA","NA","363595","NA","NA","NA","NA","358601","402856","NA","NA","84114","NA","404540","402994","84114","NA","405541","346288","396889","405544","378887","49982","51418","53058","57062","47518","7115","407045","347791","398392","407048","380390","407048","239649","407872","239546","407972","44804","402855","NA","NA","363596","NA","7011","Hommel2002EXP01","5","3718","5","yes","1024"
"y","yes","no","rect","100","100","810","810","black","no","xpyriment","legacy","yellow","red","green","blue","legacy","0","uniform","1","1","/","1","NA","NA","NA","1","NA","NA","1","NA","0","37","0","0","0","0","37","37","0","0","37","37","37","37","37","0","0","0","0","0","0","37","37","37","37","37","37","37","37","37","37","0","37","NA","NA","1","NA","0","01/02/16 13:52:33","Default description","no","chinese-japanese-korean","no","18","white","開始實驗A","768","legacy","C:/Users/Evonne/Desktop/test/Compatibility/3_Data Collection/RAW/A-2.csv","xpyriment","Interactive Ising","3.0.2","yes","0","/","NA","space","z","space","/","space","/","/","space","1143","NA","4987","1432","1636","3999","27050","2460","1143","2678","legacy","0","experiment","1","odd","NA","NA","NA","NA","363595","NA","NA","NA","NA","358601","412411","NA","NA","84114","NA","414106","412560","84114","NA","415107","346288","396889","415110","378887","49982","51418","53058","57062","47518","7115","415110","347791","398392","415113","380390","415114","239649","416262","239546","416362","44804","412410","NA","NA","363596","NA","7011","Hommel2002EXP01","6","4861","6","yes","1024"
"y","yes","no","circle","100","100","808","808","black","no","xpyriment","legacy","yellow","blue","green","red","legacy","0","uniform","1","1","z","1","NA","NA","NA","1","NA","NA","1","NA","0","38","0","0","0","0","38","38","0","0","38","38","38","38","38","0","0","0","0","0","0","38","38","38","38","38","38","38","38","38","38","0","38","NA","NA","1","NA","0","01/02/16 13:52:33","Default description","no","chinese-japanese-korean","no","18","white","開始實驗A","768","legacy","C:/Users/Evonne/Desktop/test/Compatibility/3_Data Collection/RAW/A-2.csv","xpyriment","Interactive Ising","3.0.2","yes","0","z","NA","space","z","space","/","space","/","z","space","795","NA","4987","1432","1636","3999","27050","2460","795","2678","legacy","1000","experiment","1","odd","NA","NA","NA","NA","363595","NA","NA","NA","NA","358601","420387","NA","NA","84114","NA","422167","420627","84114","NA","423167","423170","396889","415110","378887","49982","51418","53058","57062","47518","7115","424170","424174","398392","415113","380390","424175","239649","424975","239546","425075","44804","420387","NA","NA","363596","NA","7011","Hommel2002EXP01","7","5656","7","yes","1024"
"y","yes","no","circle","100","100","797","797","black","no","xpyriment","legacy","yellow","red","blue","green","legacy","0","uniform","1","1","z","1","NA","NA","NA","1","NA","NA","1","NA","0","39","0","0","0","0","39","39","0","0","39","39","39","39","39","0","0","0","0","0","0","39","39","39","39","39","39","39","39","39","39","0","39","NA","NA","1","NA","0","01/02/16 13:52:33","Default description","no","chinese-japanese-korean","no","18","white","開始實驗A","768","legacy","C:/Users/Evonne/Desktop/test/Compatibility/3_Data Collection/RAW/A-2.csv","xpyriment","Interactive Ising","3.0.2","yes","0","z","NA","space","z","space","/","space","/","z","space","725","NA","4987","1432","1636","3999","27050","2460","725","2678","legacy","1500","experiment","1","odd","NA","NA","NA","NA","363595","NA","NA","NA","NA","358601","428938","NA","NA","84114","NA","430770","429218","84114","NA","431771","431774","396889","415110","378887","49982","51418","53058","57062","47518","7115","433274","433278","398392","415113","380390","433278","239649","434009","239546","434109","44804","428938","NA","NA","363596","NA","7011","Hommel2002EXP01","8","6381","8","yes","1024"
"y","yes","no","circle","100","100","795","795","black","no","xpyriment","legacy","blue","red","green","yellow","legacy","0","uniform","1","1","z","1","NA","NA","NA","1","NA","NA","1","NA","0","40","0","0","0","0","40","40","0","0","40","40","40","40","40","0","0","0","0","0","0","40","40","40","40","40","40","40","40","40","40","0","40","NA","NA","1","NA","0","01/02/16 13:52:33","Default description","no","chinese-japanese-korean","no","18","white","開始實驗A","768","legacy","C:/Users/Evonne/Desktop/test/Compatibility/3_Data Collection/RAW/A-2.csv","xpyriment","Interactive Ising","3.0.2","yes","0","z","NA","space","z","space","/","space","/","z","space","779","NA","4987","1432","1636","3999","27050","2460","779","2678","legacy","500","experiment","1","odd","NA","NA","NA","NA","363595","NA","NA","NA","NA","358601","437824","NA","NA","84114","NA","439641","438089","84114","NA","440641","440644","396889","415110","378887","49982","51418","53058","57062","47518","7115","441144","441147","398392","415113","380390","441148","239649","441932","239546","442032","44804","437823","NA","NA","363596","NA","7011","Hommel2002EXP01","9","7160","9","yes","1024"
"n","yes","no","rect","100","100","765","765","black","no","xpyriment","legacy","red","yellow","blue","green","legacy","0","uniform","1","1","/","1","NA","NA","NA","1","NA","NA","1","NA","0","41","0","0","0","0","41","41","0","0","41","41","41","41","41","0","0","0","0","0","0","41","41","41","41","41","41","41","41","41","41","0","41","NA","NA","1","NA","0","01/02/16 13:52:33","Default description","no","chinese-japanese-korean","no","18","white","開始實驗A","768","legacy","C:/Users/Evonne/Desktop/test/Compatibility/3_Data Collection/RAW/A-2.csv","xpyriment","Interactive Ising","3.0.2","yes","0","/","NA","space","z","space","/","space","/","/","space","493","NA","4987","1432","1636","3999","27050","2460","493","2678","legacy","500","experiment","1","odd","NA","NA","NA","NA","363595","NA","NA","NA","NA","358601","445836","NA","NA","84114","NA","447661","446116","84114","NA","448661","440644","396889","415110","448890","49982","51418","53058","57062","47518","7115","449390","441147","398392","415113","449393","449393","239649","449891","239546","449991","44804","445835","NA","NA","363596","NA","7011","Hommel2002EXP01","10","7653","10","yes","1024"
"y","yes","no","rect","100","100","776","776","black","no","xpyriment","legacy","yellow","green","blue","red","legacy","0","uniform","1","1","/","1","NA","NA","NA","1","NA","NA","1","NA","0","42","0","0","0","0","42","42","0","0","42","42","42","42","42","0","0","0","0","0","0","42","42","42","42","42","42","42","42","42","42","0","42","NA","NA","1","NA","0","01/02/16 13:52:33","Default description","no","chinese-japanese-korean","no","18","white","開始實驗A","768","legacy","C:/Users/Evonne/Desktop/test/Compatibility/3_Data Collection/RAW/A-2.csv","xpyriment","Interactive Ising","3.0.2","yes","0","/","NA","space","z","space","/","space","/","/","space","886","NA","4987","1432","1636","3999","27050","2460","886","2678","legacy","1500","experiment","1","odd","NA","NA","NA","NA","363595","NA","NA","NA","NA","358601","453492","NA","NA","84114","NA","455169","453623","84114","NA","456170","440644","396889","456173","448890","49982","51418","53058","57062","47518","7115","457673","441147","398392","457676","449393","457676","239649","458567","239546","458668","44804","453491","NA","NA","363596","NA","7011","Hommel2002EXP01","11","8539","11","yes","1024"
"y","yes","no","circle","100","100","771","771","black","no","xpyriment","legacy","red","yellow","green","blue","legacy","0","uniform","1","1","z","1","NA","NA","NA","1","NA","NA","1","NA","0","43","0","0","0","0","43","43","0","0","43","43","43","43","43","0","0","0","0","0","0","43","43","43","43","43","43","43","43","43","43","0","43","NA","NA","1","NA","0","01/02/16 13:52:33","Default description","no","chinese-japanese-korean","no","18","white","開始實驗A","768","legacy","C:/Users/Evonne/Desktop/test/Compatibility/3_Data Collection/RAW/A-2.csv","xpyriment","Interactive Ising","3.0.2","yes","0","z","NA","space","z","space","/","space","/","z","space","718","NA","4987","1432","1636","3999","27050","2460","718","2678","legacy","1500","experiment","1","odd","NA","NA","NA","NA","363595","NA","NA","NA","NA","358601","462792","NA","NA","84114","NA","464495","462949","84114","NA","465496","465499","396889","456173","448890","49982","51418","53058","57062","47518","7115","466999","467002","398392","457676","449393","467003","239649","467727","239546","467827","44804","462791","NA","NA","363596","NA","7011","Hommel2002EXP01","12","9257","12","yes","1024"
"n","yes","no","rect","100","100","784","784","black","no","xpyriment","legacy","green","yellow","blue","red","legacy","0","uniform","1","1","/","1","NA","NA","NA","1","NA","NA","1","NA","0","44","0","0","0","0","44","44","0","0","44","44","44","44","44","0","0","0","0","0","0","44","44","44","44","44","44","44","44","44","44","0","44","NA","NA","1","NA","0","01/02/16 13:52:33","Default description","no","chinese-japanese-korean","no","18","white","開始實驗A","768","legacy","C:/Users/Evonne/Desktop/test/Compatibility/3_Data Collection/RAW/A-2.csv","xpyriment","Interactive Ising","3.0.2","yes","0","/","NA","space","z","space","/","space","/","/","space","936","NA","4987","1432","1636","3999","27050","2460","936","2678","legacy","0","experiment","1","odd","NA","NA","NA","NA","363595","NA","NA","NA","NA","358601","472087","NA","NA","84114","NA","473812","472263","84114","NA","474812","465499","396889","456173","474815","49982","51418","53058","57062","47518","7115","474815","467002","398392","457676","474819","474819","239649","475761","239546","475861","44804","472086","NA","NA","363596","NA","7011","Hommel2002EXP01","13","10193","13","yes","1024"
"y","yes","no","rect","100","100","776","776","black","no","xpyriment","legacy","red","green","yellow","blue","legacy","0","uniform","1","1","/","1","NA","NA","NA","1","NA","NA","1","NA","0","45","0","0","0","0","45","45","0","0","45","45","45","45","45","0","0","0","0","0","0","45","45","45","45","45","45","45","45","45","45","0","45","NA","NA","1","NA","0","01/02/16 13:52:33","Default description","no","chinese-japanese-korean","no","18","white","開始實驗A","768","legacy","C:/Users/Evonne/Desktop/test/Compatibility/3_Data Collection/RAW/A-2.csv","xpyriment","Interactive Ising","3.0.2","yes","0","/","NA","space","z","space","/","space","/","/","space","678","NA","4987","1432","1636","3999","27050","2460","678","2678","legacy","500","experiment","1","odd","NA","NA","NA","NA","363595","NA","NA","NA","NA","358601","480071","NA","NA","84114","NA","481892","480342","84114","NA","482893","465499","396889","482896","474815","49982","51418","53058","57062","47518","7115","483396","467002","398392","483399","474819","483399","239649","484082","239546","484183","44804","480070","NA","NA","363596","NA","7011","Hommel2002EXP01","14","10871","14","yes","1024"
"y","yes","no","rect","100","100","755","755","black","no","xpyriment","legacy","red","blue","yellow","green","legacy","0","uniform","1","1","/","1","NA","NA","NA","1","NA","NA","1","NA","0","46","0","0","0","0","46","46","0","0","46","46","46","46","46","0","0","0","0","0","0","46","46","46","46","46","46","46","46","46","46","0","46","NA","NA","1","NA","0","01/02/16 13:52:33","Default description","no","chinese-japanese-korean","no","18","white","開始實驗A","768","legacy","C:/Users/Evonne/Desktop/test/Compatibility/3_Data Collection/RAW/A-2.csv","xpyriment","Interactive Ising","3.0.2","yes","0","/","NA","space","z","space","/","space","/","/","space","463","NA","4987","1432","1636","3999","27050","2460","463","2678","legacy","500","experiment","1","odd","NA","NA","NA","NA","363595","NA","NA","NA","NA","358601","488039","NA","NA","84114","NA","489865","488318","84114","NA","490866","465499","396889","490869","474815","49982","51418","53058","57062","47518","7115","491369","467002","398392","491372","474819","491373","239649","491841","239546","491941","44804","488038","NA","NA","363596","NA","7011","Hommel2002EXP01","15","11334","15","yes","1024"
"y","yes","no","circle","100","100","763","763","black","no","xpyriment","legacy","green","red","blue","yellow","legacy","0","uniform","1","1","z","1","NA","NA","NA","1","NA","NA","1","NA","0","47","0","0","0","0","47","47","0","0","47","47","47","47","47","0","0","0","0","0","0","47","47","47","47","47","47","47","47","47","47","0","47","NA","NA","1","NA","0","01/02/16 13:52:33","Default description","no","chinese-japanese-korean","no","18","white","開始實驗A","768","legacy","C:/Users/Evonne/Desktop/test/Compatibility/3_Data Collection/RAW/A-2.csv","xpyriment","Interactive Ising","3.0.2","yes","0","z","NA","space","z","space","/","space","/","z","space","878","NA","4987","1432","1636","3999","27050","2460","878","2678","legacy","0","experiment","1","odd","NA","NA","NA","NA","363595","NA","NA","NA","NA","358601","495827","NA","NA","84114","NA","497654","496108","84114","NA","498655","498658","396889","490869","474815","49982","51418","53058","57062","47518","7115","498659","498662","398392","491372","474819","498662","239649","499545","239546","499645","44804","495827","NA","NA","363596","NA","7011","Hommel2002EXP01","16","12212","16","yes","1024"
"n","yes","no","rect","100","100","752","752","black","no","xpyriment","legacy","blue","yellow","red","green","legacy","0","uniform","1","1","/","1","NA","NA","NA","1","NA","NA","1","NA","0","48","0","0","0","0","48","48","0","0","48","48","48","48","48","0","0","0","0","0","0","48","48","48","48","48","48","48","48","48","48","0","48","NA","NA","1","NA","0","01/02/16 13:52:33","Default description","no","chinese-japanese-korean","no","18","white","開始實驗A","768","legacy","C:/Users/Evonne/Desktop/test/Compatibility/3_Data Collection/RAW/A-2.csv","xpyriment","Interactive Ising","3.0.2","yes","0","/","NA","space","z","space","/","space","/","/","space","578","NA","4987","1432","1636","3999","27050","2460","578","2678","legacy","500","experiment","1","odd","NA","NA","NA","NA","363595","NA","NA","NA","NA","358601","503575","NA","NA","84114","NA","505510","504007","84114","NA","506511","498658","396889","490869","506515","49982","51418","53058","57062","47518","7115","507015","498662","398392","491372","507019","507019","239649","507603","239546","507703","44804","503573","NA","NA","363596","NA","7011","Hommel2002EXP01","17","12790","17","yes","1024"
"y","yes","no","rect","94.4444444444","94.4444444444","736","736","black","no","xpyriment","legacy","red","yellow","green","blue","legacy","0","uniform","0","0","/","1","NA","NA","NA","1","NA","NA","1","NA","0","49","0","0","0","0","49","49","0","0","49","49","49","49","49","0","0","0","0","0","0","49","49","49","49","49","49","49","49","49","49","0","49","NA","NA","1","NA","0","01/02/16 13:52:33","Default description","no","chinese-japanese-korean","no","18","white","開始實驗A","768","legacy","C:/Users/Evonne/Desktop/test/Compatibility/3_Data Collection/RAW/A-2.csv","xpyriment","Interactive Ising","3.0.2","yes","0","z","NA","space","z","space","/","space","/","z","space","467","NA","4987","1432","1636","3999","27050","2460","467","2678","legacy","1000","experiment","1","odd","NA","NA","NA","NA","363595","NA","NA","NA","NA","358601","511375","NA","NA","84114","NA","513068","511524","84114","NA","514068","498658","396889","514071","506515","49982","51418","53058","57062","47518","7115","515071","498662","398392","515074","507019","515074","239649","507603","515546","515646","44804","511374","NA","NA","363596","NA","7011","Hommel2002EXP01","17","13257","18","yes","1024"
"n","yes","no","circle","94.7368421053","94.7368421053","735","735","black","no","xpyriment","legacy","green","red","yellow","blue","legacy","0","uniform","1","1","z","1","NA","NA","NA","1","NA","NA","1","NA","0","50","0","0","0","0","50","50","0","0","50","50","50","50","50","0","0","0","0","0","0","50","50","50","50","50","50","50","50","50","50","0","50","NA","NA","1","NA","0","01/02/16 13:52:33","Default description","no","chinese-japanese-korean","no","18","white","開始實驗A","768","legacy","C:/Users/Evonne/Desktop/test/Compatibility/3_Data Collection/RAW/A-2.csv","xpyriment","Interactive Ising","3.0.2","yes","0","z","NA","space","z","space","/","space","/","z","space","721","NA","4987","1432","1636","3999","27050","2460","721","2678","legacy","1500","experiment","1","odd","NA","NA","NA","NA","363595","NA","NA","NA","NA","358601","519719","NA","NA","84114","NA","521394","519851","84114","NA","522394","498658","522397","514071","506515","49982","51418","53058","57062","47518","7115","523897","498662","523900","515074","507019","523901","239649","524627","515546","524728","44804","519718","NA","NA","363596","NA","7011","Hommel2002EXP01","18","13978","19","yes","1024"
"y","yes","no","circle","95","95","741","741","black","no","xpyriment","legacy","yellow","red","blue","green","legacy","0","uniform","1","1","z","1","NA","NA","NA","1","NA","NA","1","NA","0","51","0","0","0","0","51","51","0","0","51","51","51","51","51","0","0","0","0","0","0","51","51","51","51","51","51","51","51","51","51","0","51","NA","NA","1","NA","0","01/02/16 13:52:33","Default description","no","chinese-japanese-korean","no","18","white","開始實驗A","768","legacy","C:/Users/Evonne/Desktop/test/Compatibility/3_Data Collection/RAW/A-2.csv","xpyriment","Interactive Ising","3.0.2","yes","0","z","NA","space","z","space","/","space","/","z","space","854","NA","4987","1432","1636","3999","27050","2460","854","2678","legacy","1000","experiment","1","odd","NA","NA","NA","NA","363595","NA","NA","NA","NA","358601","528938","NA","NA","84114","NA","530634","529089","84114","NA","531635","531638","522397","514071","506515","49982","51418","53058","57062","47518","7115","532638","532641","523900","515074","507019","532642","239649","533501","515546","533601","44804","528937","NA","NA","363596","NA","7011","Hommel2002EXP01","19","14832","20","yes","1024"
"n","yes","no","circle","95.2380952381","95.2380952381","747","747","black","no","xpyriment","legacy","green","blue","red","yellow","legacy","0","uniform","1","1","z","1","NA","NA","NA","1","NA","NA","1","NA","0","52","0","0","0","0","52","52","0","0","52","52","52","52","52","0","0","0","0","0","0","52","52","52","52","52","52","52","52","52","52","0","52","NA","NA","1","NA","0","01/02/16 13:52:33","Default description","no","chinese-japanese-korean","no","18","white","開始實驗A","768","legacy","C:/Users/Evonne/Desktop/test/Compatibility/3_Data Collection/RAW/A-2.csv","xpyriment","Interactive Ising","3.0.2","yes","0","z","NA","space","z","space","/","space","/","z","space","855","NA","4987","1432","1636","3999","27050","2460","855","2678","legacy","0","experiment","1","odd","NA","NA","NA","NA","363595","NA","NA","NA","NA","358601","537655","NA","NA","84114","NA","539420","537877","84114","NA","540421","531638","540424","514071","506515","49982","51418","53058","57062","47518","7115","540424","532641","540427","515074","507019","540428","239649","541288","515546","541389","44804","537654","NA","NA","363596","NA","7011","Hommel2002EXP01","20","15687","21","yes","1024"
"y","yes","no","rect","95.4545454545","95.4545454545","741","741","black","no","xpyriment","legacy","red","yellow","blue","green","legacy","0","uniform","1","1","/","1","NA","NA","NA","1","NA","NA","1","NA","0","53","0","0","0","0","53","53","0","0","53","53","53","53","53","0","0","0","0","0","0","53","53","53","53","53","53","53","53","53","53","0","53","NA","NA","1","NA","0","01/02/16 13:52:33","Default description","no","chinese-japanese-korean","no","18","white","開始實驗A","768","legacy","C:/Users/Evonne/Desktop/test/Compatibility/3_Data Collection/RAW/A-2.csv","xpyriment","Interactive Ising","3.0.2","yes","0","/","NA","space","z","space","/","space","/","/","space","617","NA","4987","1432","1636","3999","27050","2460","617","2678","legacy","1000","experiment","1","odd","NA","NA","NA","NA","363595","NA","NA","NA","NA","358601","545409","NA","NA","84114","NA","547237","545694","84114","NA","548237","531638","540424","548240","506515","49982","51418","53058","57062","47518","7115","549240","532641","540427","549243","507019","549243","239649","549865","515546","549965","44804","545408","NA","NA","363596","NA","7011","Hommel2002EXP01","21","16304","22","yes","1024"
"n","yes","no","circle","95.652173913","95.652173913","739","739","black","no","xpyriment","legacy","red","yellow","green","blue","legacy","0","uniform","1","1","z","1","NA","NA","NA","1","NA","NA","1","NA","0","54","0","0","0","0","54","54","0","0","54","54","54","54","54","0","0","0","0","0","0","54","54","54","54","54","54","54","54","54","54","0","54","NA","NA","1","NA","0","01/02/16 13:52:33","Default description","no","chinese-japanese-korean","no","18","white","開始實驗A","768","legacy","C:/Users/Evonne/Desktop/test/Compatibility/3_Data Collection/RAW/A-2.csv","xpyriment","Interactive Ising","3.0.2","yes","0","z","NA","space","z","space","/","space","/","z","space","695","NA","4987","1432","1636","3999","27050","2460","695","2678","legacy","500","experiment","1","odd","NA","NA","NA","NA","363595","NA","NA","NA","NA","358601","554054","NA","NA","84114","NA","555973","554471","84114","NA","556974","531638","556977","548240","506515","49982","51418","53058","57062","47518","7115","557477","532641","557480","549243","507019","557481","239649","558181","515546","558281","44804","554054","NA","NA","363596","NA","7011","Hommel2002EXP01","22","16999","23","yes","1024"
"n","yes","no","rect","95.8333333333","95.8333333333","747","747","black","no","xpyriment","legacy","yellow","blue","green","red","legacy","0","uniform","1","1","/","1","NA","NA","NA","1","NA","NA","1","NA","0","55","0","0","0","0","55","55","0","0","55","55","55","55","55","0","0","0","0","0","0","55","55","55","55","55","55","55","55","55","55","0","55","NA","NA","1","NA","0","01/02/16 13:52:33","Default description","no","chinese-japanese-korean","no","18","white","開始實驗A","768","legacy","C:/Users/Evonne/Desktop/test/Compatibility/3_Data Collection/RAW/A-2.csv","xpyriment","Interactive Ising","3.0.2","yes","0","/","NA","space","z","space","/","space","/","/","space","931","NA","4987","1432","1636","3999","27050","2460","931","2678","legacy","0","experiment","1","odd","NA","NA","NA","NA","363595","NA","NA","NA","NA","358601","562344","NA","NA","84114","NA","564106","562603","84114","NA","565107","531638","556977","548240","565110","49982","51418","53058","57062","47518","7115","565110","532641","557480","549243","565113","565114","239649","566050","515546","566150","44804","562343","NA","NA","363596","NA","7011","Hommel2002EXP01","23","17930","24","yes","1024"
"n","yes","no","circle","96","96","745","745","black","no","xpyriment","legacy","blue","yellow","green","red","legacy","0","uniform","1","1","z","1","NA","NA","NA","1","NA","NA","1","NA","0","56","0","0","0","0","56","56","0","0","56","56","56","56","56","0","0","0","0","0","0","56","56","56","56","56","56","56","56","56","56","0","56","NA","NA","1","NA","0","01/02/16 13:52:33","Default description","no","chinese-japanese-korean","no","18","white","開始實驗A","768","legacy","C:/Users/Evonne/Desktop/test/Compatibility/3_Data Collection/RAW/A-2.csv","xpyriment","Interactive Ising","3.0.2","yes","0","z","NA","space","z","space","/","space","/","z","space","717","NA","4987","1432","1636","3999","27050","2460","717","2678","legacy","1000","experiment","1","odd","NA","NA","NA","NA","363595","NA","NA","NA","NA","358601","570421","NA","NA","84114","NA","572115","570566","84114","NA","573115","531638","573118","548240","565110","49982","51418","53058","57062","47518","7115","574119","532641","574122","549243","565113","574124","239649","574846","515546","574946","44804","570421","NA","NA","363596","NA","7011","Hommel2002EXP01","24","18647","25","yes","1024"
"y","yes","no","circle","96.1538461538","96.1538461538","745","745","black","no","xpyriment","legacy","red","yellow","blue","green","legacy","0","uniform","1","1","z","1","NA","NA","NA","1","NA","NA","1","NA","0","57","0","0","0","0","57","57","0","0","57","57","57","57","57","0","0","0","0","0","0","57","57","57","57","57","57","57","57","57","57","0","57","NA","NA","1","NA","0","01/02/16 13:52:33","Default description","no","chinese-japanese-korean","no","18","white","開始實驗A","768","legacy","C:/Users/Evonne/Desktop/test/Compatibility/3_Data Collection/RAW/A-2.csv","xpyriment","Interactive Ising","3.0.2","yes","0","z","NA","space","z","space","/","space","/","z","space","740","NA","4987","1432","1636","3999","27050","2460","740","2678","legacy","0","experiment","1","odd","NA","NA","NA","NA","363595","NA","NA","NA","NA","358601","579023","NA","NA","84114","NA","580785","579237","84114","NA","581786","581789","573118","548240","565110","49982","51418","53058","57062","47518","7115","581789","581792","574122","549243","565113","581793","239649","582538","515546","582638","44804","579023","NA","NA","363596","NA","7011","Hommel2002EXP01","25","19387","26","yes","1024"
"n","yes","no","rect","96.2962962963","96.2962962963","731","731","black","no","xpyriment","legacy","green","blue","red","yellow","legacy","0","uniform","1","1","/","1","NA","NA","NA","1","NA","NA","1","NA","0","58","0","0","0","0","58","58","0","0","58","58","58","58","58","0","0","0","0","0","0","58","58","58","58","58","58","58","58","58","58","0","58","NA","NA","1","NA","0","01/02/16 13:52:33","Default description","no","chinese-japanese-korean","no","18","white","開始實驗A","768","legacy","C:/Users/Evonne/Desktop/test/Compatibility/3_Data Collection/RAW/A-2.csv","xpyriment","Interactive Ising","3.0.2","yes","0","/","NA","space","z","space","/","space","/","/","space","374","NA","4987","1432","1636","3999","27050","2460","374","2678","legacy","1500","experiment","1","odd","NA","NA","NA","NA","363595","NA","NA","NA","NA","358601","586834","NA","NA","84114","NA","588538","586991","84114","NA","589538","581789","573118","548240","589542","49982","51418","53058","57062","47518","7115","591042","581792","574122","549243","591045","591046","239649","591425","515546","591525","44804","586834","NA","NA","363596","NA","7011","Hommel2002EXP01","26","19761","27","yes","1024"
"n","yes","no","circle","96.4285714286","96.4285714286","720","720","black","no","xpyriment","legacy","red","green","yellow","blue","legacy","0","uniform","1","1","z","1","NA","NA","NA","1","NA","NA","1","NA","0","59","0","0","0","0","59","59","0","0","59","59","59","59","59","0","0","0","0","0","0","59","59","59","59","59","59","59","59","59","59","0","59","NA","NA","1","NA","0","01/02/16 13:52:33","Default description","no","chinese-japanese-korean","no","18","white","開始實驗A","768","legacy","C:/Users/Evonne/Desktop/test/Compatibility/3_Data Collection/RAW/A-2.csv","xpyriment","Interactive Ising","3.0.2","yes","0","z","NA","space","z","space","/","space","/","z","space","419","NA","4987","1432","1636","3999","27050","2460","419","2678","legacy","500","experiment","1","odd","NA","NA","NA","NA","363595","NA","NA","NA","NA","358601","595831","NA","NA","84114","NA","597567","596020","84114","NA","598568","581789","598571","548240","589542","49982","51418","53058","57062","47518","7115","599071","581792","599074","549243","591045","599075","239649","599499","515546","599599","44804","595830","NA","NA","363596","NA","7011","Hommel2002EXP01","27","20180","28","yes","1024"
"n","yes","no","rect","96.5517241379","96.5517241379","708","708","black","no","xpyriment","legacy","green","red","yellow","blue","legacy","0","uniform","1","1","/","1","NA","NA","NA","1","NA","NA","1","NA","0","60","0","0","0","0","60","60","0","0","60","60","60","60","60","0","0","0","0","0","0","60","60","60","60","60","60","60","60","60","60","0","60","NA","NA","1","NA","0","01/02/16 13:52:33","Default description","no","chinese-japanese-korean","no","18","white","開始實驗A","768","legacy","C:/Users/Evonne/Desktop/test/Compatibility/3_Data Collection/RAW/A-2.csv","xpyriment","Interactive Ising","3.0.2","yes","0","/","NA","space","z","space","/","space","/","/","space","364","NA","4987","1432","1636","3999","27050","2460","364","2678","legacy","1000","experiment","1","odd","NA","NA","NA","NA","363595","NA","NA","NA","NA","358601","603916","NA","NA","84114","NA","605687","604184","84114","NA","606687","581789","598571","548240","606690","49982","51418","53058","57062","47518","7115","607690","581792","599074","549243","607693","607694","239649","608063","515546","608163","44804","603915","NA","NA","363596","NA","7011","Hommel2002EXP01","28","20544","29","yes","1024"
"n","yes","no","circle","96.6666666667","96.6666666667","703","703","black","no","xpyriment","legacy","red","green","yellow","blue","legacy","0","uniform","1","1","z","1","NA","NA","NA","1","NA","NA","1","NA","0","61","0","0","0","0","61","61","0","0","61","61","61","61","61","0","0","0","0","0","0","61","61","61","61","61","61","61","61","61","61","0","61","NA","NA","1","NA","0","01/02/16 13:52:33","Default description","no","chinese-japanese-korean","no","18","white","開始實驗A","768","legacy","C:/Users/Evonne/Desktop/test/Compatibility/3_Data Collection/RAW/A-2.csv","xpyriment","Interactive Ising","3.0.2","yes","0","z","NA","space","z","space","/","space","/","z","space","570","NA","4987","1432","1636","3999","27050","2460","570","2678","legacy","0","experiment","1","odd","NA","NA","NA","NA","363595","NA","NA","NA","NA","358601","612367","NA","NA","84114","NA","614058","612513","84114","NA","615059","581789","615062","548240","606690","49982","51418","53058","57062","47518","7115","615063","581792","615065","549243","607693","615066","239649","615641","515546","615741","44804","612367","NA","NA","363596","NA","7011","Hommel2002EXP01","29","21114","30","yes","1024"
"y","yes","no","rect","93.5483870968","93.5483870968","745","745","black","no","xpyriment","legacy","yellow","red","blue","green","legacy","0","uniform","0","0","/","1","NA","NA","NA","1","NA","NA","1","NA","0","62","0","0","0","0","62","62","0","0","62","62","62","62","62","0","0","0","0","0","0","62","62","62","62","62","62","62","62","62","62","0","62","NA","NA","1","NA","0","01/02/16 13:52:33","Default description","no","chinese-japanese-korean","no","18","white","開始實驗A","768","legacy","C:/Users/Evonne/Desktop/test/Compatibility/3_Data Collection/RAW/A-2.csv","xpyriment","Interactive Ising","3.0.2","yes","0","None","NA","space","z","space","/","space","/","None","space","2000","NA","4987","1432","1636","3999","27050","2460","2000","2678","legacy","0","experiment","1","odd","NA","NA","NA","NA","363595","NA","NA","NA","NA","358601","619525","NA","NA","84114","NA","621354","619806","84114","NA","622354","581789","615062","622357","606690","49982","51418","53058","57062","47518","7115","622358","581792","615065","622361","607693","622361","624480","615641","624365","624581","44804","619525","NA","NA","363596","NA","7011","Hommel2002EXP01","29","23114","31","yes","1024"
"y","yes","no","circle","93.75","93.75","742","742","black","no","xpyriment","legacy","green","blue","yellow","red","legacy","0","uniform","1","1","z","1","NA","NA","NA","1","NA","NA","1","NA","0","63","0","0","0","0","63","63","0","0","63","63","63","63","63","0","0","0","0","0","0","63","63","63","63","63","63","63","63","63","63","0","63","NA","NA","1","NA","0","01/02/16 13:52:33","Default description","no","chinese-japanese-korean","no","18","white","開始實驗A","768","legacy","C:/Users/Evonne/Desktop/test/Compatibility/3_Data Collection/RAW/A-2.csv","xpyriment","Interactive Ising","3.0.2","yes","0","z","NA","space","z","space","/","space","/","z","space","648","NA","4987","1432","1636","3999","27050","2460","648","2678","legacy","500","experiment","1","odd","NA","NA","NA","NA","363595","NA","NA","NA","NA","358601","628670","NA","NA","84114","NA","630435","628888","84114","NA","631436","631440","615062","622357","606690","49982","51418","53058","57062","47518","7115","631940","631943","615065","622361","607693","631944","624480","632597","624365","632697","44804","628669","NA","NA","363596","NA","7011","Hommel2002EXP01","30","23762","32","yes","1024"
"y","yes","no","circle","100","100","1029","1029","black","no","xpyriment","legacy","green","blue","red","yellow","legacy","0","uniform","1","1","z","1","0","NA","NA","1","0","NA","1","NA","1","64","0","0","0","0","64","64","0","0","64","64","64","64","64","0","0","0","0","0","0","64","64","64","64","64","64","64","64","64","64","0","64","0","NA","1","NA","0","01/02/16 13:52:33","Default description","no","chinese-japanese-korean","no","18","white","開始實驗A","768","legacy","C:/Users/Evonne/Desktop/test/Compatibility/3_Data Collection/RAW/A-2.csv","xpyriment","Interactive Ising","3.0.2","no","0","z","space","space","z","space","/","space","/","z","space","1029","8385","134105","1432","1636","3999","27050","2460","1029","2678","legacy","0","experiment","1","odd","767495","775892","NA","NA","363595","NA","NA","NA","NA","633363","780037","775882","NA","84114","NA","781751","780203","84114","NA","782752","782755","615062","622357","606690","49982","51418","53058","57062","47518","7115","782756","782758","615065","622361","607693","782759","624480","783793","624365","783893","44804","780034","775892","NA","363596","NA","7011","Hommel2002EXP01","1","1029","1","yes","1024"
"y","yes","no","circle","100","100","892","892","black","no","xpyriment","legacy","red","blue","green","yellow","legacy","0","uniform","1","1","z","1","0","NA","NA","1","0","NA","1","NA","1","65","0","0","0","0","65","65","0","0","65","65","65","65","65","0","0","0","0","0","0","65","65","65","65","65","65","65","65","65","65","0","65","0","NA","1","NA","0","01/02/16 13:52:33","Default description","no","chinese-japanese-korean","no","18","white","開始實驗A","768","legacy","C:/Users/Evonne/Desktop/test/Compatibility/3_Data Collection/RAW/A-2.csv","xpyriment","Interactive Ising","3.0.2","no","0","z","space","space","z","space","/","space","/","z","space","756","8385","134105","1432","1636","3999","27050","2460","756","2678","legacy","0","experiment","1","odd","767495","775892","NA","NA","363595","NA","NA","NA","NA","633363","787372","775882","NA","84114","NA","789192","787646","84114","NA","790193","790196","615062","622357","606690","49982","51418","53058","57062","47518","7115","790197","790201","615065","622361","607693","790201","624480","790962","624365","791063","44804","787372","775892","NA","363596","NA","7011","Hommel2002EXP01","2","1785","2","yes","1024"
"n","yes","no","circle","66.6666666667","66.6666666667","721","721","black","no","xpyriment","legacy","blue","yellow","red","green","legacy","0","uniform","0","0","z","1","0","NA","NA","1","0","NA","1","NA","1","66","0","0","0","0","66","66","0","0","66","66","66","66","66","0","0","0","0","0","0","66","66","66","66","66","66","66","66","66","66","0","66","0","NA","1","NA","0","01/02/16 13:52:33","Default description","no","chinese-japanese-korean","no","18","white","開始實驗A","768","legacy","C:/Users/Evonne/Desktop/test/Compatibility/3_Data Collection/RAW/A-2.csv","xpyriment","Interactive Ising","3.0.2","no","0","/","space","space","z","space","/","space","/","/","space","379","8385","134105","1432","1636","3999","27050","2460","379","2678","legacy","1000","experiment","1","odd","767495","775892","NA","NA","363595","NA","NA","NA","NA","633363","795169","775882","NA","84114","NA","797028","795525","84114","NA","798028","790196","798031","622357","606690","49982","51418","53058","57062","47518","7115","799031","790201","799034","622361","607693","799035","624480","790962","799420","799520","44804","795169","775892","NA","363596","NA","7011","Hommel2002EXP01","2","2164","3","yes","1024"
"n","yes","no","rect","75","75","708","708","black","no","xpyriment","legacy","red","blue","green","yellow","legacy","0","uniform","1","1","/","1","0","NA","NA","1","0","NA","1","NA","1","67","0","0","0","0","67","67","0","0","67","67","67","67","67","0","0","0","0","0","0","67","67","67","67","67","67","67","67","67","67","0","67","0","NA","1","NA","0","01/02/16 13:52:33","Default description","no","chinese-japanese-korean","no","18","white","開始實驗A","768","legacy","C:/Users/Evonne/Desktop/test/Compatibility/3_Data Collection/RAW/A-2.csv","xpyriment","Interactive Ising","3.0.2","no","0","/","space","space","z","space","/","space","/","/","space","671","8385","134105","1432","1636","3999","27050","2460","671","2678","legacy","0","experiment","1","odd","767495","775892","NA","NA","363595","NA","NA","NA","NA","633363","803493","775882","NA","84114","NA","805320","803776","84114","NA","806321","790196","798031","622357","806324","49982","51418","53058","57062","47518","7115","806324","790201","799034","622361","806327","806328","624480","807004","799420","807104","44804","803492","775892","NA","363596","NA","7011","Hommel2002EXP01","3","2835","4","yes","1024"
"n","yes","no","rect","80","80","694","694","black","no","xpyriment","legacy","green","blue","yellow","red","legacy","0","uniform","1","1","/","1","0","NA","NA","1","0","NA","1","NA","1","68","0","0","0","0","68","68","0","0","68","68","68","68","68","0","0","0","0","0","0","68","68","68","68","68","68","68","68","68","68","0","68","0","NA","1","NA","0","01/02/16 13:52:33","Default description","no","chinese-japanese-korean","no","18","white","開始實驗A","768","legacy","C:/Users/Evonne/Desktop/test/Compatibility/3_Data Collection/RAW/A-2.csv","xpyriment","Interactive Ising","3.0.2","no","0","/","space","space","z","space","/","space","/","/","space","635","8385","134105","1432","1636","3999","27050","2460","635","2678","legacy","500","experiment","1","odd","767495","775892","NA","NA","363595","NA","NA","NA","NA","633363","810760","775882","NA","84114","NA","812582","811034","84114","NA","813583","790196","798031","622357","813586","49982","51418","53058","57062","47518","7115","814086","790201","799034","622361","814089","814090","624480","814730","799420","814831","44804","810759","775892","NA","363596","NA","7011","Hommel2002EXP01","4","3470","5","yes","1024"
"n","yes","no","rect","83.3333333333","83.3333333333","686","686","black","no","xpyriment","legacy","red","blue","green","yellow","legacy","0","uniform","1","1","/","1","0","NA","NA","1","0","NA","1","NA","1","69","0","0","0","0","69","69","0","0","69","69","69","69","69","0","0","0","0","0","0","69","69","69","69","69","69","69","69","69","69","0","69","0","NA","1","NA","0","01/02/16 13:52:33","Default description","no","chinese-japanese-korean","no","18","white","開始實驗A","768","legacy","C:/Users/Evonne/Desktop/test/Compatibility/3_Data Collection/RAW/A-2.csv","xpyriment","Interactive Ising","3.0.2","no","0","/","space","space","z","space","/","space","/","/","space","650","8385","134105","1432","1636","3999","27050","2460","650","2678","legacy","0","experiment","1","odd","767495","775892","NA","NA","363595","NA","NA","NA","NA","633363","818761","775882","NA","84114","NA","820576","819028","84114","NA","821576","790196","798031","622357","821579","49982","51418","53058","57062","47518","7115","821580","790201","799034","622361","821582","821583","624480","822238","799420","822338","44804","818761","775892","NA","363596","NA","7011","Hommel2002EXP01","5","4120","6","yes","1024"
"y","yes","no","rect","85.7142857143","85.7142857143","700","700","black","no","xpyriment","legacy","blue","yellow","red","green","legacy","0","uniform","1","1","/","1","0","NA","NA","1","0","NA","1","NA","1","70","0","0","0","0","70","70","0","0","70","70","70","70","70","0","0","0","0","0","0","70","70","70","70","70","70","70","70","70","70","0","70","0","NA","1","NA","0","01/02/16 13:52:33","Default description","no","chinese-japanese-korean","no","18","white","開始實驗A","768","legacy","C:/Users/Evonne/Desktop/test/Compatibility/3_Data Collection/RAW/A-2.csv","xpyriment","Interactive Ising","3.0.2","no","0","/","space","space","z","space","/","space","/","/","space","780","8385","134105","1432","1636","3999","27050","2460","780","2678","legacy","0","experiment","1","odd","767495","775892","NA","NA","363595","NA","NA","NA","NA","633363","826483","775882","NA","84114","NA","828227","826678","84114","NA","829228","790196","798031","829233","821579","49982","51418","53058","57062","47518","7115","829234","790201","799034","829238","821582","829238","624480","830024","799420","830125","44804","826482","775892","NA","363596","NA","7011","Hommel2002EXP01","6","4900","7","yes","1024"
"n","yes","no","circle","87.5","87.5","713","713","black","no","xpyriment","legacy","green","yellow","blue","red","legacy","0","uniform","1","1","z","1","0","NA","NA","1","0","NA","1","NA","1","71","0","0","0","0","71","71","0","0","71","71","71","71","71","0","0","0","0","0","0","71","71","71","71","71","71","71","71","71","71","0","71","0","NA","1","NA","0","01/02/16 13:52:33","Default description","no","chinese-japanese-korean","no","18","white","開始實驗A","768","legacy","C:/Users/Evonne/Desktop/test/Compatibility/3_Data Collection/RAW/A-2.csv","xpyriment","Interactive Ising","3.0.2","no","0","z","space","space","z","space","/","space","/","z","space","804","8385","134105","1432","1636","3999","27050","2460","804","2678","legacy","1500","experiment","1","odd","767495","775892","NA","NA","363595","NA","NA","NA","NA","633363","834405","775882","NA","84114","NA","836087","834538","84114","NA","837088","790196","837091","829233","821579","49982","51418","53058","57062","47518","7115","838591","790201","838594","829238","821582","838595","624480","839404","799420","839505","44804","834405","775892","NA","363596","NA","7011","Hommel2002EXP01","7","5704","8","yes","1024"
"n","yes","no","rect","88.8888888889","88.8888888889","684","684","black","no","xpyriment","legacy","blue","red","yellow","green","legacy","0","uniform","1","1","/","1","0","NA","NA","1","0","NA","1","NA","1","72","0","0","0","0","72","72","0","0","72","72","72","72","72","0","0","0","0","0","0","72","72","72","72","72","72","72","72","72","72","0","72","0","NA","1","NA","0","01/02/16 13:52:33","Default description","no","chinese-japanese-korean","no","18","white","開始實驗A","768","legacy","C:/Users/Evonne/Desktop/test/Compatibility/3_Data Collection/RAW/A-2.csv","xpyriment","Interactive Ising","3.0.2","no","0","/","space","space","z","space","/","space","/","/","space","459","8385","134105","1432","1636","3999","27050","2460","459","2678","legacy","1000","experiment","1","odd","767495","775892","NA","NA","363595","NA","NA","NA","NA","633363","843741","775882","NA","84114","NA","845596","844094","84114","NA","846597","790196","837091","829233","846600","49982","51418","53058","57062","47518","7115","847600","790201","838594","829238","847603","847603","624480","848067","799420","848167","44804","843740","775892","NA","363596","NA","7011","Hommel2002EXP01","8","6163","9","yes","1024"
"y","yes","no","rect","90","90","683","683","black","no","xpyriment","legacy","blue","red","yellow","green","legacy","0","uniform","1","1","/","1","0","NA","NA","1","0","NA","1","NA","1","73","0","0","0","0","73","73","0","0","73","73","73","73","73","0","0","0","0","0","0","73","73","73","73","73","73","73","73","73","73","0","73","0","NA","1","NA","0","01/02/16 13:52:33","Default description","no","chinese-japanese-korean","no","18","white","開始實驗A","768","legacy","C:/Users/Evonne/Desktop/test/Compatibility/3_Data Collection/RAW/A-2.csv","xpyriment","Interactive Ising","3.0.2","no","0","/","space","space","z","space","/","space","/","/","space","672","8385","134105","1432","1636","3999","27050","2460","672","2678","legacy","500","experiment","1","odd","767495","775892","NA","NA","363595","NA","NA","NA","NA","633363","852209","775882","NA","84114","NA","853889","852341","84114","NA","854889","790196","837091","854892","846600","49982","51418","53058","57062","47518","7115","855392","790201","838594","855395","847603","855395","624480","856072","799420","856172","44804","852208","775892","NA","363596","NA","7011","Hommel2002EXP01","9","6835","10","yes","1024"
"y","yes","no","circle","90.9090909091","90.9090909091","694","694","black","no","xpyriment","legacy","blue","yellow","red","green","legacy","0","uniform","1","1","z","1","0","NA","NA","1","0","NA","1","NA","1","74","0","0","0","0","74","74","0","0","74","74","74","74","74","0","0","0","0","0","0","74","74","74","74","74","74","74","74","74","74","0","74","0","NA","1","NA","0","01/02/16 13:52:33","Default description","no","chinese-japanese-korean","no","18","white","開始實驗A","768","legacy","C:/Users/Evonne/Desktop/test/Compatibility/3_Data Collection/RAW/A-2.csv","xpyriment","Interactive Ising","3.0.2","no","0","z","space","space","z","space","/","space","/","z","space","804","8385","134105","1432","1636","3999","27050","2460","804","2678","legacy","1500","experiment","1","odd","767495","775892","NA","NA","363595","NA","NA","NA","NA","633363","859818","775882","NA","84114","NA","861641","860094","84114","NA","862641","862644","837091","854892","846600","49982","51418","53058","57062","47518","7115","864144","864147","838594","855395","847603","864148","624480","864957","799420","865057","44804","859818","775892","NA","363596","NA","7011","Hommel2002EXP01","10","7639","11","yes","1024"
"y","yes","no","rect","91.6666666667","91.6666666667","689","689","black","no","xpyriment","legacy","red","blue","yellow","green","legacy","0","uniform","1","1","/","1","0","NA","NA","1","0","NA","1","NA","1","75","0","0","0","0","75","75","0","0","75","75","75","75","75","0","0","0","0","0","0","75","75","75","75","75","75","75","75","75","75","0","75","0","NA","1","NA","0","01/02/16 13:52:33","Default description","no","chinese-japanese-korean","no","18","white","開始實驗A","768","legacy","C:/Users/Evonne/Desktop/test/Compatibility/3_Data Collection/RAW/A-2.csv","xpyriment","Interactive Ising","3.0.2","no","0","/","space","space","z","space","/","space","/","/","space","638","8385","134105","1432","1636","3999","27050","2460","638","2678","legacy","500","experiment","1","odd","767495","775892","NA","NA","363595","NA","NA","NA","NA","633363","869074","775882","NA","84114","NA","870833","869287","84114","NA","871833","862644","837091","871837","846600","49982","51418","53058","57062","47518","7115","872337","864147","838594","872340","847603","872341","624480","872984","799420","873085","44804","869073","775892","NA","363596","NA","7011","Hommel2002EXP01","11","8277","12","yes","1024"
"n","yes","no","circle","92.3076923077","92.3076923077","691","691","black","no","xpyriment","legacy","red","yellow","green","blue","legacy","0","uniform","1","1","z","1","0","NA","NA","1","0","NA","1","NA","1","76","0","0","0","0","76","76","0","0","76","76","76","76","76","0","0","0","0","0","0","76","76","76","76","76","76","76","76","76","76","0","76","0","NA","1","NA","0","01/02/16 13:52:33","Default description","no","chinese-japanese-korean","no","18","white","開始實驗A","768","legacy","C:/Users/Evonne/Desktop/test/Compatibility/3_Data Collection/RAW/A-2.csv","xpyriment","Interactive Ising","3.0.2","no","0","z","space","space","z","space","/","space","/","z","space","715","8385","134105","1432","1636","3999","27050","2460","715","2678","legacy","0","experiment","1","odd","767495","775892","NA","NA","363595","NA","NA","NA","NA","633363","877177","775882","NA","84114","NA","878858","877317","84114","NA","879859","862644","879862","871837","846600","49982","51418","53058","57062","47518","7115","879862","864147","879865","872340","847603","879866","624480","880586","799420","880686","44804","877176","775892","NA","363596","NA","7011","Hommel2002EXP01","12","8992","13","yes","1024"
"y","yes","no","rect","92.8571428571","92.8571428571","709","709","black","no","xpyriment","legacy","yellow","red","green","blue","legacy","0","uniform","1","1","/","1","0","NA","NA","1","0","NA","1","NA","1","77","0","0","0","0","77","77","0","0","77","77","77","77","77","0","0","0","0","0","0","77","77","77","77","77","77","77","77","77","77","0","77","0","NA","1","NA","0","01/02/16 13:52:33","Default description","no","chinese-japanese-korean","no","18","white","開始實驗A","768","legacy","C:/Users/Evonne/Desktop/test/Compatibility/3_Data Collection/RAW/A-2.csv","xpyriment","Interactive Ising","3.0.2","no","0","/","space","space","z","space","/","space","/","/","space","938","8385","134105","1432","1636","3999","27050","2460","938","2678","legacy","0","experiment","1","odd","767495","775892","NA","NA","363595","NA","NA","NA","NA","633363","884797","775882","NA","84114","NA","886523","884985","84114","NA","887524","862644","879862","887527","846600","49982","51418","53058","57062","47518","7115","887527","864147","879865","887530","847603","887531","624480","888474","799420","888574","44804","884797","775892","NA","363596","NA","7011","Hommel2002EXP01","13","9930","14","yes","1024"
"y","yes","no","rect","93.3333333333","93.3333333333","712","712","black","no","xpyriment","legacy","green","blue","yellow","red","legacy","0","uniform","1","1","/","1","0","NA","NA","1","0","NA","1","NA","1","78","0","0","0","0","78","78","0","0","78","78","78","78","78","0","0","0","0","0","0","78","78","78","78","78","78","78","78","78","78","0","78","0","NA","1","NA","0","01/02/16 13:52:33","Default description","no","chinese-japanese-korean","no","18","white","開始實驗A","768","legacy","C:/Users/Evonne/Desktop/test/Compatibility/3_Data Collection/RAW/A-2.csv","xpyriment","Interactive Ising","3.0.2","no","0","/","space","space","z","space","/","space","/","/","space","764","8385","134105","1432","1636","3999","27050","2460","764","2678","legacy","1500","experiment","1","odd","767495","775892","NA","NA","363595","NA","NA","NA","NA","633363","892409","775882","NA","84114","NA","894220","892676","84114","NA","895221","862644","879862","895226","846600","49982","51418","53058","57062","47518","7115","896726","864147","879865","896730","847603","896730","624480","897500","799420","897600","44804","892408","775892","NA","363596","NA","7011","Hommel2002EXP01","14","10694","15","yes","1024"
"n","yes","no","circle","93.75","93.75","711","711","black","no","xpyriment","legacy","yellow","blue","green","red","legacy","0","uniform","1","1","z","1","0","NA","NA","1","0","NA","1","NA","1","79","0","0","0","0","79","79","0","0","79","79","79","79","79","0","0","0","0","0","0","79","79","79","79","79","79","79","79","79","79","0","79","0","NA","1","NA","0","01/02/16 13:52:33","Default description","no","chinese-japanese-korean","no","18","white","開始實驗A","768","legacy","C:/Users/Evonne/Desktop/test/Compatibility/3_Data Collection/RAW/A-2.csv","xpyriment","Interactive Ising","3.0.2","no","0","z","space","space","z","space","/","space","/","z","space","684","8385","134105","1432","1636","3999","27050","2460","684","2678","legacy","500","experiment","1","odd","767495","775892","NA","NA","363595","NA","NA","NA","NA","633363","901768","775882","NA","84114","NA","903674","902172","84114","NA","904675","862644","904678","895226","846600","49982","51418","53058","57062","47518","7115","905178","864147","905181","896730","847603","905182","624480","905871","799420","905971","44804","901767","775892","NA","363596","NA","7011","Hommel2002EXP01","15","11378","16","yes","1024"
"n","yes","no","rect","94.1176470588","94.1176470588","704","704","black","no","xpyriment","legacy","blue","green","red","yellow","legacy","0","uniform","1","1","/","1","0","NA","NA","1","0","NA","1","NA","1","80","0","0","0","0","80","80","0","0","80","80","80","80","80","0","0","0","0","0","0","80","80","80","80","80","80","80","80","80","80","0","80","0","NA","1","NA","0","01/02/16 13:52:33","Default description","no","chinese-japanese-korean","no","18","white","開始實驗A","768","legacy","C:/Users/Evonne/Desktop/test/Compatibility/3_Data Collection/RAW/A-2.csv","xpyriment","Interactive Ising","3.0.2","no","0","/","space","space","z","space","/","space","/","/","space","604","8385","134105","1432","1636","3999","27050","2460","604","2678","legacy","1000","experiment","1","odd","767495","775892","NA","NA","363595","NA","NA","NA","NA","633363","909898","775882","NA","84114","NA","911584","910035","84114","NA","912585","862644","904678","895226","912589","49982","51418","53058","57062","47518","7115","913589","864147","905181","896730","913592","913593","624480","914202","799420","914302","44804","909898","775892","NA","363596","NA","7011","Hommel2002EXP01","16","11982","17","yes","1024"
"y","yes","no","circle","94.4444444444","94.4444444444","704","704","black","no","xpyriment","legacy","green","red","yellow","blue","legacy","0","uniform","1","1","z","1","0","NA","NA","1","0","NA","1","NA","1","81","0","0","0","0","81","81","0","0","81","81","81","81","81","0","0","0","0","0","0","81","81","81","81","81","81","81","81","81","81","0","81","0","NA","1","NA","0","01/02/16 13:52:33","Default description","no","chinese-japanese-korean","no","18","white","開始實驗A","768","legacy","C:/Users/Evonne/Desktop/test/Compatibility/3_Data Collection/RAW/A-2.csv","xpyriment","Interactive Ising","3.0.2","no","0","z","space","space","z","space","/","space","/","z","space","695","8385","134105","1432","1636","3999","27050","2460","695","2678","legacy","1000","experiment","1","odd","767495","775892","NA","NA","363595","NA","NA","NA","NA","633363","918033","775882","NA","84114","NA","919849","918309","84114","NA","920850","920853","904678","895226","912589","49982","51418","53058","57062","47518","7115","921853","921856","905181","896730","913592","921857","624480","922557","799420","922657","44804","918032","775892","NA","363596","NA","7011","Hommel2002EXP01","17","12677","18","yes","1024"
